dataset,dataset_label,structure,order,variable,label,type,datatype,length,key,mandatory,role,codelist,origin,comment,core,change
TA,Trial Arms,One record per planned Element per Arm,1,STUDYID,Study Identifier,Char,text,12,1,Yes,IDENTIFIER,,CRF Page 7,,,
TA,Trial Arms,One record per planned Element per Arm,2,DOMAIN,Domain Abbreviation,Char,text,2,,Yes,IDENTIFIER,,Assigned,,,
TA,Trial Arms,One record per planned Element per Arm,3,ARMCD,Planned Arm Code,Char,text,8,2,Yes,TOPIC,ARMCD,Assigned,,,
TA,Trial Arms,One record per planned Element per Arm,4,ARM,Description of Planned Arm,Char,text,20,,Yes,SYNONYM QUALIFIER,ARM,Protocol,,,
TA,Trial Arms,One record per planned Element per Arm,5,TAETORD,Order of Element within Arm,Num,integer,8,3,Yes,IDENTIFIER,,Assigned,,,
TA,Trial Arms,One record per planned Element per Arm,6,ETCD,Element Code,Char,text,200,,Yes,RECORD QUALIFIER,ETCD,Assigned,,,
TA,Trial Arms,One record per planned Element per Arm,7,ELEMENT,Description of Element,Char,text,200,,No,SYNONYM QUALIFIER,ELEMENT,Protocol,,,
TA,Trial Arms,One record per planned Element per Arm,8,TABRANCH,Branch,Char,text,200,,No,RULE,,Protocol,,,
TA,Trial Arms,One record per planned Element per Arm,9,TATRANS,Transition Rule,Char,text,200,,No,RULE,,Protocol,,,
TA,Trial Arms,One record per planned Element per Arm,10,EPOCH,Epoch,Char,text,200,,Yes,TIMING,EPOCH,Protocol,,,
TE,Trial Elements,One record per planned Element,1,STUDYID,Study Identifier,Char,text,12,1,Yes,IDENTIFIER,,CRF Page 7,,,
TE,Trial Elements,One record per planned Element,2,DOMAIN,Domain Abbreviation,Char,text,2,,Yes,IDENTIFIER,,Assigned,,,
TE,Trial Elements,One record per planned Element,3,ETCD,Element Code,Char,text,200,2,Yes,TOPIC,ETCD,Assigned,,,
TE,Trial Elements,One record per planned Element,4,ELEMENT,Description of Element,Char,text,200,,Yes,SYNONYM QUALIFIER,ELEMENT,Protocol,,,
TE,Trial Elements,One record per planned Element,5,TESTRL,Rule for Start of Element,Char,text,200,,Yes,RULE,,Protocol,,,
TE,Trial Elements,One record per planned Element,6,TEENRL,Rule for End of Element,Char,text,200,,No,RULE,,Protocol,,,
TE,Trial Elements,One record per planned Element,7,TEDUR,Planned Duration of Element,Char,text,200,,No,TIMING,,Protocol,,,
TI,Trial Inclusion/ Exclusion Criteria,One record per I/E criterion,1,STUDYID,Study Identifier,Char,text,12,1,Yes,IDENTIFIER,,CRF Page 7,,,
TI,Trial Inclusion/ Exclusion Criteria,One record per I/E criterion,2,DOMAIN,Domain Abbreviation,Char,text,2,,Yes,IDENTIFIER,,Assigned,,,
TI,Trial Inclusion/ Exclusion Criteria,One record per I/E criterion,3,IETESTCD,Incl/Excl Criterion Short Name,Char,text,16,2,Yes,TOPIC,IETESTCD,Assigned,,,
TI,Trial Inclusion/ Exclusion Criteria,One record per I/E criterion,4,IETEST,Inclusion/Exclusion Criterion,Char,text,166,,Yes,SYNONYM QUALIFIER,IETEST,"CRF Pages 1, 2, 3, 4, 5, 6",,,
TI,Trial Inclusion/ Exclusion Criteria,One record per I/E criterion,5,IECAT,Inclusion/Exclusion Category,Char,text,9,,Yes,GROUPING QUALIFIER,IECAT,Assigned,,,
TI,Trial Inclusion/ Exclusion Criteria,One record per I/E criterion,6,TIRL,Inclusion/Exclusion Criterion Rule,Char,text,40,,No,RULE,,Assigned,"TIRL= "" """,,
TS,Trial Summary,One record per trial summary parameter value,1,STUDYID,Study Identifier,Char,text,12,1,Yes,IDENTIFIER,,CRF Page 7,,,
TS,Trial Summary,One record per trial summary parameter value,2,DOMAIN,Domain Abbreviation,Char,text,2,,Yes,IDENTIFIER,,Assigned,,,
TS,Trial Summary,One record per trial summary parameter value,3,TSSEQ,Sequence Number,Num,integer,8,3,Yes,IDENTIFIER,,Derived,Sequential number identifying records within each TSPARMCD,,
TS,Trial Summary,One record per trial summary parameter value,4,TSPARMCD,Trial Summary Parameter Short Name,Char,text,200,2,Yes,TOPIC,,Assigned,,,
TS,Trial Summary,One record per trial summary parameter value,5,TSPARM,Trial Summary Parameter,Char,text,200,,Yes,SYNONYM QUALIFIER,,Protocol,,,
TS,Trial Summary,One record per trial summary parameter value,6,TSVAL,Parameter Value,Char,text,200,,Yes,RESULT QUALIFIER,,Protocol,,,
TV,Trial Visits,One record per planned Visit per Arm,1,STUDYID,Study Identifier,Char,text,12,1,Yes,IDENTIFIER,,CRF Page 7,,,
TV,Trial Visits,One record per planned Visit per Arm,2,DOMAIN,Domain Abbreviation,Char,text,2,,Yes,IDENTIFIER,,Assigned,,,
TV,Trial Visits,One record per planned Visit per Arm,3,VISITNUM,Visit Number,Num,float,8,2,Yes,TOPIC,VISITNUM,Protocol,,,
TV,Trial Visits,One record per planned Visit per Arm,4,VISIT,Visit Name,Char,text,90,,No,SYNONYM QUALIFIER,VISIT,Protocol,,,
TV,Trial Visits,One record per planned Visit per Arm,5,VISITDY,Planned Study Day of Visit,Num,integer,8,,No,TIMING,,Protocol,,,
TV,Trial Visits,One record per planned Visit per Arm,6,ARMCD,Planned Arm Code,Char,text,8,,No,RECORD QUALIFIER,ARMCD,Protocol,,,
TV,Trial Visits,One record per planned Visit per Arm,7,ARM,Description of Planned Arm,Char,text,20,,No,SYNONYM QUALIFIER,ARM,Protocol,,,
TV,Trial Visits,One record per planned Visit per Arm,8,TVSTRL,Visit Start Rule,Char,text,200,,Yes,RULE,,Protocol,,,
TV,Trial Visits,One record per planned Visit per Arm,9,TVENRL,Visit End Rule,Char,text,200,,No,RULE,,Protocol,,,
DM,Demographics,One record per subject,1,STUDYID,Study Identifier,Char,text,12,1,Yes,IDENTIFIER,,CRF Page 7,,,
DM,Demographics,One record per subject,2,DOMAIN,Domain Abbreviation,Char,text,2,,Yes,IDENTIFIER,,Assigned,,,
DM,Demographics,One record per subject,3,USUBJID,Unique Subject Identifier,Char,text,11,2,Yes,IDENTIFIER,,Derived,"Concatenation of STUDYID, DM.SITEID and DM.SUBJID",,
DM,Demographics,One record per subject,4,SUBJID,Subject Identifier for the Study,Char,text,4,,Yes,TOPIC,,CRF Page 7,,,
DM,Demographics,One record per subject,5,RFSTDTC,Subject Reference Start Date/Time,Char,date,10,,No,RECORD QUALIFIER,,Derived,Date/time of first study drug treatment derived from EX,,
DM,Demographics,One record per subject,6,RFENDTC,Subject Reference End Date/Time,Char,date,10,,No,RECORD QUALIFIER,,Derived,Date/time of last study drug treatment derived from EX,,
DM,Demographics,One record per subject,7,RFXSTDTC,Date/Time of First Study Treatment,Char,datetime,20,,No,RECORD QUALIFIER,,Derived,RFXSTDTC=RFSTDTC,,
DM,Demographics,One record per subject,8,RFXENDTC,Date/Time of Last Study Treatment,Char,datetime,20,,No,RECORD QUALIFIER,,Derived,RFXENDTC=RFENDTC,,
DM,Demographics,One record per subject,9,RFICDTC,Date/Time of Informed Consent,Char,datetime,20,,No,RECORD QUALIFIER,,Derived,Date of informed consent was not entered in database (see annotated CRF),,
DM,Demographics,One record per subject,10,RFPENDTC,Date/Time of End of Participation,Char,datetime,20,,No,RECORD QUALIFIER,,Derived,DSSTDTC of last disposition event,,
DM,Demographics,One record per subject,11,DTHDTC,Date/Time of Death,Char,datetime,20,,No,RECORD QUALIFIER,,Derived,"If DS record exists with DSDECOD=""DEATH"" then DTHDTC=AEENDTC.",,
DM,Demographics,One record per subject,12,DTHFL,Subject Death Flag,Char,text,1,,No,RECORD QUALIFIER,Y_BLANK,Derived,"If DS record exists with DSDECOD=""DEATH"" then DEATHFL=Y.",,
DM,Demographics,One record per subject,13,SITEID,Study Site Identifier,Char,text,3,,Yes,RECORD QUALIFIER,,Assigned,,,
DM,Demographics,One record per subject,14,AGE,Age,Num,integer,8,,No,RECORD QUALIFIER,,Derived,Subject's Age at start of study drug (RFSTDTC).,,
DM,Demographics,One record per subject,15,AGEU,Age Units,Char,text,6,,No,VARIABLE QUALIFIER,AGEU,Assigned,"AGEU=""YEARS""",,
DM,Demographics,One record per subject,16,SEX,Sex,Char,text,1,,Yes,RECORD QUALIFIER,SEX,CRF Page 7,,,
DM,Demographics,One record per subject,17,RACE,Race,Char,text,78,,No,RECORD QUALIFIER,RACE,CRF Page 7,,,
DM,Demographics,One record per subject,18,ETHNIC,Ethnicity,Char,text,25,,No,RECORD QUALIFIER,ETHNIC,Derived,"Derived from Origin entered on CRF: ETHINC=""HISPANIC OR LATINO"" if Origin=""Hispanic"". Otherwise ETHNIC=""NOT HISPANIC OR LATINO""",,
DM,Demographics,One record per subject,19,ARMCD,Planned Arm Code,Char,text,8,,Yes,RECORD QUALIFIER,ARMCD,Assigned,According to randomization list,,
DM,Demographics,One record per subject,20,ARM,Description of Planned Arm,Char,text,20,,Yes,SYNONYM QUALIFIER,ARM,Assigned,According to randomization list,,
DM,Demographics,One record per subject,21,ACTARMCD,Actual Arm Code,Char,text,8,,Yes,RECORD QUALIFIER,ARMCD,Derived,Derived from EX,,
DM,Demographics,One record per subject,22,ACTARM,Description of Actual Arm,Char,text,20,,Yes,SYNONYM QUALIFIER,ARM,Derived,Derived from EX,,
DM,Demographics,One record per subject,23,COUNTRY,Country,Char,text,3,,Yes,RECORD QUALIFIER,COUNTRY,Derived,Derived from site information,,
DM,Demographics,One record per subject,24,DMDTC,Date/Time of Collection,Char,date,10,,No,TIMING,,CRF Page 7,,,
DM,Demographics,One record per subject,25,DMDY,Study Day of Collection,Num,integer,8,,No,TIMING,,Derived,,,
SE,Subject Elements,One record per actual Element per subject,1,STUDYID,Study Identifier,Char,text,12,1,Yes,IDENTIFIER,,CRF Page 7,,,
SE,Subject Elements,One record per actual Element per subject,2,DOMAIN,Domain Abbreviation,Char,text,2,,Yes,IDENTIFIER,,Assigned,,,
SE,Subject Elements,One record per actual Element per subject,3,USUBJID,Unique Subject Identifier,Char,text,11,2,Yes,IDENTIFIER,,Derived,"Concatenation of STUDYID, DM.SITEID and DM.SUBJID",,
SE,Subject Elements,One record per actual Element per subject,4,SESEQ,Sequence Number,Num,integer,8,,Yes,IDENTIFIER,,Derived,Sequential number identifying records within each USUBJID,,
SE,Subject Elements,One record per actual Element per subject,5,ETCD,Element Code,Char,text,200,3,Yes,TOPIC,ETCD,Assigned,,,
SE,Subject Elements,One record per actual Element per subject,6,ELEMENT,Description of Element,Char,text,200,,No,SYNONYM QUALIFIER,ELEMENT,Protocol,,,
SE,Subject Elements,One record per actual Element per subject,7,SESTDTC,Start Date/Time of Element,Char,date,10,,Yes,TIMING,,Derived,Earliest date/time when data pertaining to that element were collected,,
SE,Subject Elements,One record per actual Element per subject,8,SEENDTC,End Date/Time of Element,Char,date,10,,No,TIMING,,Derived,Last date/time when data pertaining to that element were collected,,
SE,Subject Elements,One record per actual Element per subject,9,SEUPDES,Description of Unplanned Element,Char,text,200,,No,SYNONYM QUALIFIER,,Assigned,,,
SV,Subject Visits,One record per actual visit per subject,1,STUDYID,Study Identifier,Char,text,12,1,Yes,IDENTIFIER,,CRF Page 7,,,
SV,Subject Visits,One record per actual visit per subject,2,DOMAIN,Domain Abbreviation,Char,text,2,,Yes,IDENTIFIER,,Assigned,,,
SV,Subject Visits,One record per actual visit per subject,3,USUBJID,Unique Subject Identifier,Char,text,11,2,Yes,IDENTIFIER,,Derived,"Concatenation of STUDYID, DM.SITEID and DM.SUBJID",,
SV,Subject Visits,One record per actual visit per subject,4,VISITNUM,Visit Number,Num,float,8,3,Yes,TOPIC,VISITNUM,"CRF Pages 7, 22, 25, 32, 36, 42, 49, 52, 58, 67, 73, 82, 88, 90, 99, 108, 116, 121, 122, 123, 123, 125, 126, 128",,,
SV,Subject Visits,One record per actual visit per subject,5,VISIT,Visit Name,Char,text,19,,No,SYNONYM QUALIFIER,VISIT,"CRF Pages 7, 22, 25, 32, 36, 42, 49, 52, 58, 67, 73, 82, 88, 90, 99, 108, 116, 121, 122, 123, 123, 125, 126, 128",,,
SV,Subject Visits,One record per actual visit per subject,6,VISITDY,Planned Study Day of Visit,Num,integer,8,,No,TIMING,,Derived,TV.VISITDY,,
SV,Subject Visits,One record per actual visit per subject,7,SVSTDTC,Start Date/Time of Visit,Char,date,10,,No,TIMING,,Derived,Earliest date when data were collected for the corresponding visit.,,
SV,Subject Visits,One record per actual visit per subject,8,SVENDTC,End Date/Time of Visit,Char,date,10,,No,TIMING,,Derived,Lastt date when data were collected for the corresponding visit.,,
CM,Concomitant Medications,One record per recorded medication occurrence or constant-dosing interval per subject,1,STUDYID,Study Identifier,Char,text,12,1,Yes,IDENTIFIER,,CRF Page 7,,,
CM,Concomitant Medications,One record per recorded medication occurrence or constant-dosing interval per subject,2,DOMAIN,Domain Abbreviation,Char,text,2,,Yes,IDENTIFIER,,Assigned,,,
CM,Concomitant Medications,One record per recorded medication occurrence or constant-dosing interval per subject,3,USUBJID,Unique Subject Identifier,Char,text,11,2,Yes,IDENTIFIER,,Derived,"Concatenation of STUDYID, DM.SITEID and DM.SUBJID",,
CM,Concomitant Medications,One record per recorded medication occurrence or constant-dosing interval per subject,4,CMSEQ,Sequence Number,Num,integer,8,,Yes,IDENTIFIER,,Derived,Sequential number identifying records within each USUBJID,,
CM,Concomitant Medications,One record per recorded medication occurrence or constant-dosing interval per subject,5,CMSPID,Sponsor-Defined Identifier,Char,text,2,,No,IDENTIFIER,,Assigned,,,
CM,Concomitant Medications,One record per recorded medication occurrence or constant-dosing interval per subject,6,CMTRT,"Reported Name of Drug, Med, or Therapy",Char,text,44,3,Yes,TOPIC,,"CRF Page 124, 125, 126",,,
CM,Concomitant Medications,One record per recorded medication occurrence or constant-dosing interval per subject,7,CMDECOD,Standardized Medication Name,Char,text,24,,No,SYNONYM QUALIFIER,DRUGDICT,Assigned,,,
CM,Concomitant Medications,One record per recorded medication occurrence or constant-dosing interval per subject,8,CMINDC,Indication,Char,text,34,,No,RECORD QUALIFIER,,"CRF Page 124, 125, 126",,,
CM,Concomitant Medications,One record per recorded medication occurrence or constant-dosing interval per subject,9,CMCLAS,Medication Class,Char,text,42,,No,VARIABLE QUALIFIER,DRUGDICT,Assigned,ATC Level 1,,
CM,Concomitant Medications,One record per recorded medication occurrence or constant-dosing interval per subject,10,CMDOSE,Dose per Administration,Num,integer,8,,No,RECORD QUALIFIER,,"CRF Page 124, 125, 126",,,
CM,Concomitant Medications,One record per recorded medication occurrence or constant-dosing interval per subject,11,CMDOSU,Dose Units,Char,text,17,,No,VARIABLE QUALIFIER,,"CRF Page 124, 125, 126",,,
CM,Concomitant Medications,One record per recorded medication occurrence or constant-dosing interval per subject,12,CMDOSFRQ,Dosing Frequency per Interval,Char,text,15,,No,VARIABLE QUALIFIER,CMFREQ,"CRF Page 124, 125, 126",,,
CM,Concomitant Medications,One record per recorded medication occurrence or constant-dosing interval per subject,13,CMROUTE,Route of Administration,Char,text,200,,No,VARIABLE QUALIFIER,CMROUTE,"CRF Page 124, 125, 126",,,
CM,Concomitant Medications,One record per recorded medication occurrence or constant-dosing interval per subject,14,VISITNUM,Visit Number,Num,float,8,,No,TIMING,VISITNUM,"CRF Page 124, 125, 126",,,
CM,Concomitant Medications,One record per recorded medication occurrence or constant-dosing interval per subject,15,VISIT,Visit Name,Char,text,19,,No,TIMING,VISIT,"CRF Page 124, 125, 126",,,
CM,Concomitant Medications,One record per recorded medication occurrence or constant-dosing interval per subject,16,VISITDY,Planned Study Day of Visit,Num,integer,8,,No,TIMING,,Derived,TV.VISITDY,,
CM,Concomitant Medications,One record per recorded medication occurrence or constant-dosing interval per subject,17,CMDTC,Date/Time of Collection,Char,date,10,,No,TIMING,,"CRF Page 124, 125, 126",,,
CM,Concomitant Medications,One record per recorded medication occurrence or constant-dosing interval per subject,18,CMSTDTC,Start Date/Time of Medication,Char,date,10,4,No,TIMING,,"CRF Page 124, 125, 126",,,
CM,Concomitant Medications,One record per recorded medication occurrence or constant-dosing interval per subject,19,CMENDTC,End Date/Time of Medication,Char,date,10,,No,TIMING,,"CRF Page 124, 125, 126",,,
CM,Concomitant Medications,One record per recorded medication occurrence or constant-dosing interval per subject,20,CMSTDY,Study Day of Start of Medication,Num,integer,8,,No,TIMING,,Derived,,,
CM,Concomitant Medications,One record per recorded medication occurrence or constant-dosing interval per subject,21,CMENDY,Study Day of End of Medication,Num,integer,8,,No,TIMING,,Derived,,,
EX,Exposure,One record per constant dosing interval per subject,1,STUDYID,Study Identifier,Char,text,12,1,Yes,IDENTIFIER,,CRF Page 7,,,
EX,Exposure,One record per constant dosing interval per subject,2,DOMAIN,Domain Abbreviation,Char,text,2,,Yes,IDENTIFIER,,Assigned,,,
EX,Exposure,One record per constant dosing interval per subject,3,USUBJID,Unique Subject Identifier,Char,text,11,2,Yes,IDENTIFIER,,Derived,"Concatenation of STUDYID, DM.SITEID and DM.SUBJID",,
EX,Exposure,One record per constant dosing interval per subject,4,EXSEQ,Sequence Number,Num,integer,8,,Yes,IDENTIFIER,,Derived,Sequential number identifying records within each USUBJID,,
EX,Exposure,One record per constant dosing interval per subject,5,EXTRT,Name of Actual Treatment,Char,text,10,3,Yes,TOPIC,EXTRT,eDT,,,
EX,Exposure,One record per constant dosing interval per subject,6,EXDOSE,Dose per Administration,Num,integer,8,,No,RECORD QUALIFIER,,eDT,,,
EX,Exposure,One record per constant dosing interval per subject,7,EXDOSU,Dose Units,Char,text,2,,No,VARIABLE QUALIFIER,EXDOSEU,eDT,,,
EX,Exposure,One record per constant dosing interval per subject,8,EXDOSFRM,Dose Form,Char,text,5,,No,RECORD QUALIFIER,EXDOSFRM,eDT,,,
EX,Exposure,One record per constant dosing interval per subject,9,EXDOSFRQ,Dosing Frequency per Interval,Char,text,2,,No,VARIABLE QUALIFIER,EXFREQ,eDT,,,
EX,Exposure,One record per constant dosing interval per subject,10,EXROUTE,Route of Administration,Char,text,11,,No,VARIABLE QUALIFIER,EXROUTE,eDT,,,
EX,Exposure,One record per constant dosing interval per subject,11,VISITNUM,Visit Number,Num,float,8,,No,TIMING,VISITNUM,"CRF Pages 25, 36, 42, 49, 52, 58, 67, 73, 82, 90, 99, 108, 116, 128",,,
EX,Exposure,One record per constant dosing interval per subject,12,VISIT,Visit Name,Char,text,19,,No,TIMING,VISIT,"CRF Pages 25, 36, 42, 49, 52, 58, 67, 73, 82, 90, 99, 108, 116, 128",,,
EX,Exposure,One record per constant dosing interval per subject,13,VISITDY,Planned Study Day of Visit,Num,integer,8,,No,TIMING,,Derived,TV.VISITDY,,
EX,Exposure,One record per constant dosing interval per subject,14,EXSTDTC,Start Date/Time of Treatment,Char,date,10,4,No,TIMING,,"CRF Pages 25, 36, 42, 49, 52, 58, 67, 73, 82, 90, 99, 108, 116, 128",,,
EX,Exposure,One record per constant dosing interval per subject,15,EXENDTC,End Date/Time of Treatment,Char,date,10,,No,TIMING,,"CRF Page 105, 138",,,
EX,Exposure,One record per constant dosing interval per subject,16,EXSTDY,Study Day of Start of Treatment,Num,integer,8,,No,TIMING,,Derived,,,
EX,Exposure,One record per constant dosing interval per subject,17,EXENDY,Study Day of End of Treatment,Num,integer,8,,No,TIMING,,Derived,,,
AE,Adverse Events,One record per adverse event per subject,1,STUDYID,Study Identifier,Char,text,12,1,Yes,IDENTIFIER,,CRF Page 7,,,
AE,Adverse Events,One record per adverse event per subject,2,DOMAIN,Domain Abbreviation,Char,text,2,,Yes,IDENTIFIER,,Assigned,,,
AE,Adverse Events,One record per adverse event per subject,3,USUBJID,Unique Subject Identifier,Char,text,11,2,Yes,IDENTIFIER,,Derived,"Concatenation of STUDYID, DM.SITEID and DM.SUBJID",,
AE,Adverse Events,One record per adverse event per subject,4,AESEQ,Sequence Number,Num,integer,8,5,Yes,IDENTIFIER,,Derived,Sequential number identifying records within each USUBJID,,
AE,Adverse Events,One record per adverse event per subject,5,AESPID,Sponsor-Defined Identifier,Char,text,3,,No,IDENTIFIER,,"CRF Page 121, 122, 123",,,
AE,Adverse Events,One record per adverse event per subject,6,AETERM,Reported Term for the Adverse Event,Char,text,200,3,Yes,TOPIC,,"CRF Page 121, 122, 123",,,
AE,Adverse Events,One record per adverse event per subject,7,AELLT,Lowest Level Term,Char,text,100,,No,VARIABLE QUALIFIER,AEDICT,Assigned,,,
AE,Adverse Events,One record per adverse event per subject,8,AELLTCD,Lowest Level Term Code,Num,integer,8,,No,VARIABLE QUALIFIER,,Assigned,,,
AE,Adverse Events,One record per adverse event per subject,9,AEDECOD,Dictionary-Derived Term,Char,text,200,,No,SYNONYM QUALIFIER,AEDICT,Assigned,,,
AE,Adverse Events,One record per adverse event per subject,10,AEPTCD,Preferred Term Code,Num,integer,8,,No,VARIABLE QUALIFIER,,Assigned,,,
AE,Adverse Events,One record per adverse event per subject,11,AEHLT,High Level Term,Char,text,100,,No,VARIABLE QUALIFIER,AEDICT,Assigned,,,
AE,Adverse Events,One record per adverse event per subject,12,AEHLTCD,High Level Term Code,Num,integer,8,,No,VARIABLE QUALIFIER,,Assigned,,,
AE,Adverse Events,One record per adverse event per subject,13,AEHLGT,High Level Group Term,Char,text,100,,No,VARIABLE QUALIFIER,AEDICT,Assigned,,,
AE,Adverse Events,One record per adverse event per subject,14,AEHLGTCD,High Level Group Term Code,Num,integer,8,,No,VARIABLE QUALIFIER,,Assigned,,,
AE,Adverse Events,One record per adverse event per subject,15,AEBODSYS,Body System or Organ Class,Char,text,67,,No,VARIABLE QUALIFIER,AEDICT,Assigned,,,
AE,Adverse Events,One record per adverse event per subject,16,AEBDSYCD,Body System or Organ Class Code,Num,integer,8,,No,VARIABLE QUALIFIER,,Assigned,,,
AE,Adverse Events,One record per adverse event per subject,17,AESOC,Primary System Organ Class,Char,text,100,,No,VARIABLE QUALIFIER,AEDICT,Assigned,,,
AE,Adverse Events,One record per adverse event per subject,18,AESOCCD,Primary System Organ Class Code,Num,integer,8,,No,VARIABLE QUALIFIER,,Assigned,,,
AE,Adverse Events,One record per adverse event per subject,19,AESEV,Severity/Intensity,Char,text,8,,No,VARIABLE QUALIFIER,SEV,"CRF Page 121, 122, 123",,,
AE,Adverse Events,One record per adverse event per subject,20,AESER,Serious Event,Char,text,1,,No,RECORD QUALIFIER,YN,"CRF Page 121, 122, 123",,,
AE,Adverse Events,One record per adverse event per subject,21,AEACN,Action Taken with Study Treatment,Char,text,30,,No,RECORD QUALIFIER,,Derived,AEACN=Null (data on action taken concerning study treatment was not collected),,
AE,Adverse Events,One record per adverse event per subject,22,AEREL,Causality,Char,text,8,,No,RECORD QUALIFIER,AECAUS,"CRF Page 121, 122, 123",,,
AE,Adverse Events,One record per adverse event per subject,23,AEOUT,Outcome of Adverse Event,Char,text,200,,No,RECORD QUALIFIER,OUT,"CRF Page 121, 122, 123",,,
AE,Adverse Events,One record per adverse event per subject,24,AESCAN,Involves Cancer,Char,text,1,,No,RECORD QUALIFIER,YN,"CRF Page 121, 122, 123",,,
AE,Adverse Events,One record per adverse event per subject,25,AESCONG,Congenital Anomaly or Birth Defect,Char,text,1,,No,RECORD QUALIFIER,YN,"CRF Page 121, 122, 123",,,
AE,Adverse Events,One record per adverse event per subject,26,AESDISAB,Persist or Signif Disability/Incapacity,Char,text,1,,No,RECORD QUALIFIER,YN,"CRF Page 121, 122, 123",,,
AE,Adverse Events,One record per adverse event per subject,27,AESDTH,Results in Death,Char,text,1,,No,RECORD QUALIFIER,YN,"CRF Page 121, 122, 123",,,
AE,Adverse Events,One record per adverse event per subject,28,AESHOSP,Requires or Prolongs Hospitalization,Char,text,1,,No,RECORD QUALIFIER,YN,"CRF Page 121, 122, 123",,,
AE,Adverse Events,One record per adverse event per subject,29,AESLIFE,Is Life Threatening,Char,text,1,,No,RECORD QUALIFIER,YN,"CRF Page 121, 122, 123",,,
AE,Adverse Events,One record per adverse event per subject,30,AESOD,Occurred with Overdose,Char,text,1,,No,RECORD QUALIFIER,YN,"CRF Page 121, 122, 123",,,
AE,Adverse Events,One record per adverse event per subject,31,AEDTC,Date/Time of Collection,Char,date,10,,No,TIMING,,Derived,Date of final visit (SV),,
AE,Adverse Events,One record per adverse event per subject,32,AESTDTC,Start Date/Time of Adverse Event,Char,date,10,4,No,TIMING,,"CRF Page 121, 122, 123",,,
AE,Adverse Events,One record per adverse event per subject,33,AEENDTC,End Date/Time of Adverse Event,Char,date,10,,No,TIMING,,"CRF Page 121, 122, 123",,,
AE,Adverse Events,One record per adverse event per subject,34,AESTDY,Study Day of Start of Adverse Event,Num,integer,8,,No,TIMING,,Derived,,,
AE,Adverse Events,One record per adverse event per subject,35,AEENDY,Study Day of End of Adverse Event,Num,integer,8,,No,TIMING,,Derived,,,
DS,Disposition,One record per disposition status or protocol milestone per subject,1,STUDYID,Study Identifier,Char,text,12,1,Yes,IDENTIFIER,,CRF Page 7,,,
DS,Disposition,One record per disposition status or protocol milestone per subject,2,DOMAIN,Domain Abbreviation,Char,text,2,,Yes,IDENTIFIER,,Assigned,,,
DS,Disposition,One record per disposition status or protocol milestone per subject,3,USUBJID,Unique Subject Identifier,Char,text,11,2,Yes,IDENTIFIER,,Derived,"Concatenation of STUDYID, DM.SITEID and DM.SUBJID",,
DS,Disposition,One record per disposition status or protocol milestone per subject,4,DSSEQ,Sequence Number,Num,integer,8,,Yes,IDENTIFIER,,Derived,Sequential number identifying records within each USUBJID,,
DS,Disposition,One record per disposition status or protocol milestone per subject,5,DSSPID,Sponsor-Defined Identifier,Char,text,2,,No,IDENTIFIER,,Assigned,,,
DS,Disposition,One record per disposition status or protocol milestone per subject,6,DSTERM,Reported Term for the Disposition Event,Char,text,63,,Yes,TOPIC,,"CRF Page 106, 139",,,
DS,Disposition,One record per disposition status or protocol milestone per subject,7,DSDECOD,Standardized Disposition Term,Char,text,63,3,Yes,SYNONYM QUALIFIER,DISCCD,"CRF Page 106, 139",,,
DS,Disposition,One record per disposition status or protocol milestone per subject,8,DSCAT,Category for Disposition Event,Char,text,17,,No,GROUPING QUALIFIER,DSCAT,Assigned,,,
DS,Disposition,One record per disposition status or protocol milestone per subject,9,VISITNUM,Visit Number,Num,float,8,,No,TIMING,VISITNUM,"CRF Page 106, 139",,,
DS,Disposition,One record per disposition status or protocol milestone per subject,10,VISIT,Visit Name,Char,text,19,,No,TIMING,VISIT,"CRF Page 106, 139",,,
DS,Disposition,One record per disposition status or protocol milestone per subject,11,DSDTC,Date/Time of Collection,Char,datetime,19,,No,TIMING,,"CRF Page 106, 139",,,
DS,Disposition,One record per disposition status or protocol milestone per subject,12,DSSTDTC,Start Date/Time of Disposition Event,Char,date,10,4,No,TIMING,,"CRF Page 106, 139",,,
DS,Disposition,One record per disposition status or protocol milestone per subject,13,DSSTDY,Study Day of Start of Disposition Event,Num,integer,8,,No,TIMING,,Derived,,,
MH,Medical History,One record per medical history event per subject,1,STUDYID,Study Identifier,Char,text,12,1,Yes,IDENTIFIER,,CRF Page 7,,,
MH,Medical History,One record per medical history event per subject,2,DOMAIN,Domain Abbreviation,Char,text,2,,Yes,IDENTIFIER,,Assigned,,,
MH,Medical History,One record per medical history event per subject,3,USUBJID,Unique Subject Identifier,Char,text,11,2,Yes,IDENTIFIER,,Derived,"Concatenation of STUDYID, DM.SITEID and DM.SUBJID",,
MH,Medical History,One record per medical history event per subject,4,MHSEQ,Sequence Number,Num,integer,8,,Yes,IDENTIFIER,,Derived,Sequential number identifying records within each USUBJID,,
MH,Medical History,One record per medical history event per subject,5,MHSPID,Sponsor-Defined Identifier,Char,text,3,,No,IDENTIFIER,,"CRF Pages 14, 15, 121, 122, 123",,,
MH,Medical History,One record per medical history event per subject,6,MHTERM,Reported Term for the Medical History,Char,text,19,3,Yes,TOPIC,,"CRF Pages 14, 15, 121, 122, 123",,,
MH,Medical History,One record per medical history event per subject,7,MHLLT,Lowest Level Term,Char,text,200,,No,VARIABLE QUALIFIER,MHDICT,Assigned,,,
MH,Medical History,One record per medical history event per subject,8,MHDECOD,Dictionary-Derived Term,Char,text,44,,No,SYNONYM QUALIFIER,MHDICT,Assigned,,,
MH,Medical History,One record per medical history event per subject,9,MHHLT,High Level Term,Char,text,200,,No,VARIABLE QUALIFIER,MHDICT,Assigned,,,
MH,Medical History,One record per medical history event per subject,10,MHHLGT,High Level Group Term,Char,text,200,,No,VARIABLE QUALIFIER,MHDICT,Assigned,,,
MH,Medical History,One record per medical history event per subject,11,MHCAT,Category for Medical History,Char,text,34,,No,GROUPING QUALIFIER,MHCAT,Assigned,Category values are assigned according to the CRF Section label wich was used to collect that type of medical history information.,,
MH,Medical History,One record per medical history event per subject,12,MHBODSYS,Body System or Organ Class,Char,text,67,,No,RECORD QUALIFIER,MHDICT,Assigned,,,
MH,Medical History,One record per medical history event per subject,13,MHSEV,Severity/Intensity,Char,text,8,,No,VARIABLE QUALIFIER,SEV,"CRF Pages 121, 122, 123",,,
MH,Medical History,One record per medical history event per subject,14,VISITNUM,Visit Number,Num,float,8,,No,TIMING,VISITNUM,"CRF Pages 14, 15, 121, 122, 123",,,
MH,Medical History,One record per medical history event per subject,15,VISIT,Visit Name,Char,text,19,,No,TIMING,VISIT,"CRF Pages 14, 15, 121, 122, 123",,,
MH,Medical History,One record per medical history event per subject,16,VISITDY,Planned Study Day of Visit,Num,integer,8,,No,TIMING,,Derived,TV.VISITDY,,
MH,Medical History,One record per medical history event per subject,17,MHDTC,Date/Time of History Collection,Char,date,10,,No,TIMING,,"CRF Pages 14, 15, 121, 122, 123",,,
MH,Medical History,One record per medical history event per subject,18,MHSTDTC,Start Date/Time of Medical History Event,Char,date,10,4,No,TIMING,,"CRF Pages 12, 14",,,
MH,Medical History,One record per medical history event per subject,19,MHDY,Study Day of History Collection,Num,integer,8,,No,TIMING,,Derived,,,
LB,Laboratory Tests Results,One record per analyte per planned time point number per time point reference per visit per subject,1,STUDYID,Study Identifier,Char,text,12,1,Yes,IDENTIFIER,,CRF Page 7,,,
LB,Laboratory Tests Results,One record per analyte per planned time point number per time point reference per visit per subject,2,DOMAIN,Domain Abbreviation,Char,text,2,,Yes,IDENTIFIER,,Assigned,,,
LB,Laboratory Tests Results,One record per analyte per planned time point number per time point reference per visit per subject,3,USUBJID,Unique Subject Identifier,Char,text,11,2,Yes,IDENTIFIER,,Derived,"Concatenation of STUDYID, DM.SITEID and DM.SUBJID",,
LB,Laboratory Tests Results,One record per analyte per planned time point number per time point reference per visit per subject,4,LBSEQ,Sequence Number,Num,integer,8,,Yes,IDENTIFIER,,Derived,Sequential number identifying records within each USUBJID,,
LB,Laboratory Tests Results,One record per analyte per planned time point number per time point reference per visit per subject,5,LBTESTCD,Lab Test or Examination Short Name,Char,text,7,3,Yes,TOPIC,,eDT,,,
LB,Laboratory Tests Results,One record per analyte per planned time point number per time point reference per visit per subject,6,LBTEST,Lab Test or Examination Name,Char,text,200,,Yes,SYNONYM QUALIFIER,,eDT,,,
LB,Laboratory Tests Results,One record per analyte per planned time point number per time point reference per visit per subject,7,LBCAT,Category for Lab Test,Char,text,10,,No,GROUPING QUALIFIER,LBCAT,eDT,,,
LB,Laboratory Tests Results,One record per analyte per planned time point number per time point reference per visit per subject,8,LBORRES,Result or Finding in Original Units,Char,text,5,,No,RESULT QUALIFIER,,eDT,,,
LB,Laboratory Tests Results,One record per analyte per planned time point number per time point reference per visit per subject,9,LBORRESU,Original Units,Char,text,8,,No,VARIABLE QUALIFIER,,eDT,,,
LB,Laboratory Tests Results,One record per analyte per planned time point number per time point reference per visit per subject,10,LBORNRLO,Reference Range Lower Limit in Orig Unit,Char,text,5,,No,VARIABLE QUALIFIER,,eDT,,,
LB,Laboratory Tests Results,One record per analyte per planned time point number per time point reference per visit per subject,11,LBORNRHI,Reference Range Upper Limit in Orig Unit,Char,text,7,,No,VARIABLE QUALIFIER,,eDT,,,
LB,Laboratory Tests Results,One record per analyte per planned time point number per time point reference per visit per subject,12,LBSTRESC,Character Result/Finding in Std Format,Char,text,8,,No,RESULT QUALIFIER,,Derived,LBORRES converted to standard unit (LBSTRESU),,
LB,Laboratory Tests Results,One record per analyte per planned time point number per time point reference per visit per subject,13,LBSTRESN,Numeric Result/Finding in Standard Units,Num,integer,8,,No,RESULT QUALIFIER,,Derived,LBSTRESC converted to numeric,,
LB,Laboratory Tests Results,One record per analyte per planned time point number per time point reference per visit per subject,14,LBSTRESU,Standard Units,Char,text,8,,No,VARIABLE QUALIFIER,LBUNIT,Assigned,Standard unit per parameter assigned for summarizing analyses,,
LB,Laboratory Tests Results,One record per analyte per planned time point number per time point reference per visit per subject,15,LBSTNRLO,Reference Range Lower Limit-Std Units,Num,integer,8,,No,VARIABLE QUALIFIER,,Derived,LBORNRLO converted to standard unit (LBSTRESU),,
LB,Laboratory Tests Results,One record per analyte per planned time point number per time point reference per visit per subject,16,LBSTNRHI,Reference Range Upper Limit-Std Units,Num,integer,8,,No,VARIABLE QUALIFIER,,Derived,LBORNRHI converted to standard unit (LBSTRESU),,
LB,Laboratory Tests Results,One record per analyte per planned time point number per time point reference per visit per subject,17,LBNRIND,Reference Range Indicator,Char,text,200,,No,VARIABLE QUALIFIER,LBNRIND,Derived,"If LBSTRESN > LBSTNRHI then LBNRIND=""HIGH"". If LBSTRESN < LBSTNRLO then LBNRIND=""LOW"". If LBSTRESN between LBSTNRLO and LBSTNRHI then LBNRIND=""NORMAL"". Selected urinalysis parameters (e.g. Ketones) are classified as NORMAL or ABNORMAL only.",,
LB,Laboratory Tests Results,One record per analyte per planned time point number per time point reference per visit per subject,18,LBBLFL,Baseline Flag,Char,text,1,,No,RECORD QUALIFIER,Y_BLANK,Derived,"If VISIT=""SCREENING"" then LBBLFL=Y",,
LB,Laboratory Tests Results,One record per analyte per planned time point number per time point reference per visit per subject,19,VISITNUM,Visit Number,Num,float,8,4,No,TIMING,VISITNUM,eDT,,,
LB,Laboratory Tests Results,One record per analyte per planned time point number per time point reference per visit per subject,20,VISIT,Visit Name,Char,text,19,,No,TIMING,VISIT,eDT,,,
LB,Laboratory Tests Results,One record per analyte per planned time point number per time point reference per visit per subject,21,VISITDY,Planned Study Day of Visit,Num,integer,8,,No,TIMING,,Derived,TV.VISITDY,,
LB,Laboratory Tests Results,One record per analyte per planned time point number per time point reference per visit per subject,22,LBDTC,Date/Time of Specimen Collection,Char,datetime,16,,No,TIMING,,eDT,,,
LB,Laboratory Tests Results,One record per analyte per planned time point number per time point reference per visit per subject,23,LBDY,Study Day of Specimen Collection,Num,integer,8,,No,TIMING,,Derived,,,
QS,Questionnaires,One record per questionnaire per question per time point per visit per subject,1,STUDYID,Study Identifier,Char,text,12,1,Yes,IDENTIFIER,,CRF Page 7,,,
QS,Questionnaires,One record per questionnaire per question per time point per visit per subject,2,DOMAIN,Domain Abbreviation,Char,text,2,,Yes,IDENTIFIER,,Assigned,,,
QS,Questionnaires,One record per questionnaire per question per time point per visit per subject,3,USUBJID,Unique Subject Identifier,Char,text,11,2,Yes,IDENTIFIER,,Derived,"Concatenation of STUDYID, DM.SITEID and DM.SUBJID",,
QS,Questionnaires,One record per questionnaire per question per time point per visit per subject,4,QSSEQ,Sequence Number,Num,integer,8,,Yes,IDENTIFIER,,Derived,Sequential number identifying records within each USUBJID,,
QS,Questionnaires,One record per questionnaire per question per time point per visit per subject,5,QSTESTCD,Question Short Name,Char,text,8,3,Yes,TOPIC,,"CRF Pages 10, 11, 26, 27, 28, 29, 38, 44, 54, 59, 60, 61, 62, 63, 69, 74, 75, 76, 77, 78, 84, 89, 91, 92, 93, 94, 95, 101, 109, 110, 111, 112, 113, 130, 131, 132, 133, 134, 156, 157",,,
QS,Questionnaires,One record per questionnaire per question per time point per visit per subject,6,QSTEST,Question Name,Char,text,40,,Yes,SYNONYM QUALIFIER,,"CRF Pages 10, 11, 26, 27, 28, 29, 38, 44, 54, 59, 60, 61, 62, 63, 69, 74, 75, 76, 77, 78, 84, 89, 91, 92, 93, 94, 95, 101, 109, 110, 111, 112, 113, 130, 131, 132, 133, 134, 156, 157",,,
QS,Questionnaires,One record per questionnaire per question per time point per visit per subject,7,QSCAT,Category of Question,Char,text,70,,Yes,GROUPING QUALIFIER,QSCAT,"CRF Pages 10, 11, 26, 27, 28, 29, 38, 44, 54, 59, 60, 61, 62, 63, 69, 74, 75, 76, 77, 78, 84, 89, 91, 92, 93, 94, 95, 101, 109, 110, 111, 112, 113, 130, 131, 132, 133, 134, 156, 157",,,
QS,Questionnaires,One record per questionnaire per question per time point per visit per subject,8,QSSCAT,Subcategory for Question,Char,text,26,,No,GROUPING QUALIFIER,,"CRF Pages 10, 11, 26, 27, 28, 29, 38, 44, 54, 59, 60, 61, 62, 63, 69, 74, 75, 76, 77, 78, 84, 89, 91, 92, 93, 94, 95, 101, 109, 110, 111, 112, 113, 130, 131, 132, 133, 134, 156, 157",,,
QS,Questionnaires,One record per questionnaire per question per time point per visit per subject,9,QSORRES,Finding in Original Units,Char,text,20,,No,RESULT QUALIFIER,,"CRF Pages 10, 11, 26, 27, 28, 29, 38, 44, 54, 59, 60, 61, 62, 63, 69, 74, 75, 76, 77, 78, 84, 89, 91, 92, 93, 94, 95, 101, 109, 110, 111, 112, 113, 130, 131, 132, 133, 134, 156, 157",,,
QS,Questionnaires,One record per questionnaire per question per time point per visit per subject,10,QSORRESU,Original Units,Char,text,7,,No,VARIABLE QUALIFIER,QSUNIT,"CRF Pages 26, 59, 74, 91, 109, 130",,,
QS,Questionnaires,One record per questionnaire per question per time point per visit per subject,11,QSSTRESC,Character Result/Finding in Std Format,Char,text,4,,No,RESULT QUALIFIER,,Derived,Derived standardized value for collect result (QSORRES),,
QS,Questionnaires,One record per questionnaire per question per time point per visit per subject,12,QSSTRESN,Numeric Finding in Standard Units,Num,integer,8,,No,RESULT QUALIFIER,,Derived,,,
QS,Questionnaires,One record per questionnaire per question per time point per visit per subject,13,QSSTRESU,Standard Units,Char,text,7,,No,VARIABLE QUALIFIER,QSUNIT,Derived,QSSTRESU=QSORRESU,,
QS,Questionnaires,One record per questionnaire per question per time point per visit per subject,14,QSBLFL,Baseline Flag,Char,text,1,,No,RECORD QUALIFIER,Y_BLANK,Derived,"If VISIT=""BASELINE"" then QSBLFL=""Y""",,
QS,Questionnaires,One record per questionnaire per question per time point per visit per subject,15,QSDRVFL,Derived Flag,Char,text,1,,No,RECORD QUALIFIER,Y_BLANK,Assigned,"Individual test results which were not collected on CRF but derived are flagged with QSDRVFL=""Y""",,
QS,Questionnaires,One record per questionnaire per question per time point per visit per subject,16,VISITNUM,Visit Number,Num,float,8,4,No,TIMING,VISITNUM,"CRF Pages 10, 11, 26, 27, 28, 29, 38, 44, 54, 59, 60, 61, 62, 63, 69, 74, 75, 76, 77, 78, 84, 89, 91, 92, 93, 94, 95, 101, 109, 110, 111, 112, 113, 130, 131, 132, 133, 134, 156, 157",,,
QS,Questionnaires,One record per questionnaire per question per time point per visit per subject,17,VISIT,Visit Name,Char,text,19,,No,TIMING,VISIT,"CRF Pages 10, 11, 26, 27, 28, 29, 38, 44, 54, 59, 60, 61, 62, 63, 69, 74, 75, 76, 77, 78, 84, 89, 91, 92, 93, 94, 95, 101, 109, 110, 111, 112, 113, 130, 131, 132, 133, 134, 156, 157",,,
QS,Questionnaires,One record per questionnaire per question per time point per visit per subject,18,VISITDY,Planned Study Day of Visit,Num,integer,8,,No,TIMING,,Derived,TV.VISITDY,,
QS,Questionnaires,One record per questionnaire per question per time point per visit per subject,19,QSDTC,Date/Time of Finding,Char,date,10,,No,TIMING,,Derived,QSDTC=SV.SVSTDTC of the respective VISIT,,
QS,Questionnaires,One record per questionnaire per question per time point per visit per subject,20,QSDY,Study Day of Finding,Num,integer,8,,No,TIMING,,Derived,,,
SC,Subject Characteristics,One record per characteristic per subject,1,STUDYID,Study Identifier,Char,text,12,1,Yes,IDENTIFIER,,CRF Page 7,,,
SC,Subject Characteristics,One record per characteristic per subject,2,DOMAIN,Domain Abbreviation,Char,text,2,,Yes,IDENTIFIER,,Assigned,,,
SC,Subject Characteristics,One record per characteristic per subject,3,USUBJID,Unique Subject Identifier,Char,text,11,2,Yes,IDENTIFIER,,Derived,"Concatenation of STUDYID, DM.SITEID and DM.SUBJID",,
SC,Subject Characteristics,One record per characteristic per subject,4,SCSEQ,Sequence Number,Num,integer,8,,Yes,IDENTIFIER,,Derived,Sequential number identifying records within each USUBJID,,
SC,Subject Characteristics,One record per characteristic per subject,5,SCTESTCD,Subject Characteristic Short Name,Char,text,8,3,Yes,TOPIC,,CRF Page 8,,,
SC,Subject Characteristics,One record per characteristic per subject,6,SCTEST,Subject Characteristic,Char,text,18,,Yes,SYNONYM QUALIFIER,,CRF Page 8,,,
SC,Subject Characteristics,One record per characteristic per subject,7,SCCAT,Category for Subject Characteristic,Char,text,9,,No,GROUPING QUALIFIER,SCCAT,Assigned,Corresponds to the CRF Section label where the data were obtained from.,,
SC,Subject Characteristics,One record per characteristic per subject,8,SCORRES,Result or Finding in Original Units,Char,text,2,,No,RESULT QUALIFIER,,CRF Page 8,,,
SC,Subject Characteristics,One record per characteristic per subject,9,SCORRESU,Original Units,Char,text,5,,No,VARIABLE QUALIFIER,SCUNIT,CRF Page 8,,,
SC,Subject Characteristics,One record per characteristic per subject,10,SCSTRESC,Character Result/Finding in Std Format,Char,text,2,,No,RESULT QUALIFIER,,Derived,SCORRES converted to standard unit,,
SC,Subject Characteristics,One record per characteristic per subject,11,SCSTRESN,Numeric Result/Finding in Standard Units,Num,integer,8,,No,RESULT QUALIFIER,,Derived,SCSTRESC converted to numeric,,
SC,Subject Characteristics,One record per characteristic per subject,12,SCSTRESU,Standard Units,Char,text,5,,No,VARIABLE QUALIFIER,SCUNIT,Derived,SCSTRESU=SCORRESU,,
SC,Subject Characteristics,One record per characteristic per subject,13,SCDTC,Date/Time of Collection,Char,date,10,,No,TIMING,,CRF Page 7,,,
SC,Subject Characteristics,One record per characteristic per subject,14,SCDY,Study Day of Examination,Num,integer,8,,No,TIMING,,Derived,,,
VS,Vital Signs,One record per vital sign measurement per time point per visit per subject,1,STUDYID,Study Identifier,Char,text,12,1,Yes,IDENTIFIER,,CRF Page 7,,,
VS,Vital Signs,One record per vital sign measurement per time point per visit per subject,2,DOMAIN,Domain Abbreviation,Char,text,2,,Yes,IDENTIFIER,,Assigned,,,
VS,Vital Signs,One record per vital sign measurement per time point per visit per subject,3,USUBJID,Unique Subject Identifier,Char,text,11,2,Yes,IDENTIFIER,,Derived,"Concatenation of STUDYID, DM.SITEID and DM.SUBJID",,
VS,Vital Signs,One record per vital sign measurement per time point per visit per subject,4,VSSEQ,Sequence Number,Num,integer,8,,Yes,IDENTIFIER,,Derived,Sequential number identifying records within each USUBJID,,
VS,Vital Signs,One record per vital sign measurement per time point per visit per subject,5,VSTESTCD,Vital Signs Test Short Name,Char,text,6,3,Yes,TOPIC,,"CRF Pages 16, 17, 22, 23, 30, 33, 39, 45, 50, 55, 64, 70, 79, 85, 96, 102, 114, 135",,,
VS,Vital Signs,One record per vital sign measurement per time point per visit per subject,6,VSTEST,Vital Signs Test Name,Char,text,24,,Yes,SYNONYM QUALIFIER,,"CRF Pages 16, 17, 22, 23, 30, 33, 39, 45, 50, 55, 64, 70, 79, 85, 96, 102, 114, 135",,,
VS,Vital Signs,One record per vital sign measurement per time point per visit per subject,7,VSPOS,Vital Signs Position of Subject,Char,text,8,,No,RECORD QUALIFIER,VSPOS,"CRF Pages 16, 17, 22, 23, 30, 33, 39, 45, 50, 55, 64, 70, 79, 85, 96, 102, 114, 135",,,
VS,Vital Signs,One record per vital sign measurement per time point per visit per subject,8,VSORRES,Result or Finding in Original Units,Char,text,5,,No,RESULT QUALIFIER,,"CRF Pages 16, 17, 22, 23, 30, 33, 39, 45, 50, 55, 64, 70, 79, 85, 96, 102, 114, 135",,,
VS,Vital Signs,One record per vital sign measurement per time point per visit per subject,9,VSORRESU,Original Units,Char,text,200,,No,VARIABLE QUALIFIER,VSUNIT,"CRF Pages 16, 17, 22, 23, 30, 33, 39, 45, 50, 55, 64, 70, 79, 85, 96, 102, 114, 135",,,
VS,Vital Signs,One record per vital sign measurement per time point per visit per subject,10,VSSTRESC,Character Result/Finding in Std Format,Char,text,6,,No,RESULT QUALIFIER,,Derived,VSORRES converted to standard unit,,
VS,Vital Signs,One record per vital sign measurement per time point per visit per subject,11,VSSTRESN,Numeric Result/Finding in Standard Units,Num,integer,8,,No,RESULT QUALIFIER,,Derived,VSSTRESC converted to numeric,,
VS,Vital Signs,One record per vital sign measurement per time point per visit per subject,12,VSSTRESU,Standard Units,Char,text,200,,No,VARIABLE QUALIFIER,VSUNIT,Assigned,Standard unit defined per parameter for summarizing analysis,,
VS,Vital Signs,One record per vital sign measurement per time point per visit per subject,13,VSSTAT,Completion Status,Char,text,8,,No,RECORD QUALIFIER,ND,"CRF Pages 16, 17, 22, 23, 30, 33, 39, 45, 50, 55, 64, 70, 79, 85, 96, 102, 114, 135",,,
VS,Vital Signs,One record per vital sign measurement per time point per visit per subject,14,VSLOC,Location of Vital Signs Measurement,Char,text,200,,No,RECORD QUALIFIER,VSLOC,"CRF Pages 17, 23, 30, 33, 45, 50, 55, 64, 70, 79, 85, 96, 102, 114, 135",,,
VS,Vital Signs,One record per vital sign measurement per time point per visit per subject,15,VSBLFL,Baseline Flag,Char,text,1,,No,RECORD QUALIFIER,Y_BLANK,Derived,"If VISIT=""BASELINE"" then VSBLFL=""Y""",,
VS,Vital Signs,One record per vital sign measurement per time point per visit per subject,16,VISITNUM,Visit Number,Num,float,8,4,No,TIMING,VISITNUM,"CRF Pages 16, 17, 22, 23, 30, 33, 39, 45, 50, 55, 64, 70, 79, 85, 96, 102, 114, 135",,,
VS,Vital Signs,One record per vital sign measurement per time point per visit per subject,17,VISIT,Visit Name,Char,text,19,,No,TIMING,VISIT,"CRF Pages 16, 17, 22, 23, 30, 33, 39, 45, 50, 55, 64, 70, 79, 85, 96, 102, 114, 135",,,
VS,Vital Signs,One record per vital sign measurement per time point per visit per subject,18,VISITDY,Planned Study Day of Visit,Num,integer,8,,No,TIMING,,Derived,TV.VISITDY,,
VS,Vital Signs,One record per vital sign measurement per time point per visit per subject,19,VSDTC,Date/Time of Measurements,Char,date,10,,No,TIMING,,"CRF Pages 16, 17, 22, 23, 30, 33, 39, 45, 50, 55, 64, 70, 79, 85, 96, 102, 114, 135",,,
VS,Vital Signs,One record per vital sign measurement per time point per visit per subject,20,VSDY,Study Day of Vital Signs,Num,integer,8,,No,TIMING,,Derived,,,
VS,Vital Signs,One record per vital sign measurement per time point per visit per subject,21,VSTPT,Planned Time Point Name,Char,text,30,,No,TIMING,VSTPT,"CRF Pages 16, 17, 22, 23, 30, 33, 39, 45, 50, 55, 64, 70, 79, 85, 96, 102, 114, 135",,,
VS,Vital Signs,One record per vital sign measurement per time point per visit per subject,22,VSTPTNUM,Planned Time Point Number,Num,integer,8,5,No,TIMING,VSTPTNUM,"CRF Pages 16, 17, 22, 23, 30, 33, 39, 45, 50, 55, 64, 70, 79, 85, 96, 102, 114, 135",,,
VS,Vital Signs,One record per vital sign measurement per time point per visit per subject,23,VSELTM,Planned Elapsed Time from Time Point Ref,Char,text,4,,No,TIMING,,Derived,VSTPT expressed in the ISO 8601 format for durations,,
VS,Vital Signs,One record per vital sign measurement per time point per visit per subject,24,VSTPTREF,Time Point Reference,Char,text,16,,No,TIMING,VSTPTREF,Assigned,,,
RELREC,Related Records,"One record per related record, group of records or datasets",1,STUDYID,Study Identifier,Char,text,12,1,Yes,IDENTIFIER,,CRF Page 7,,,
RELREC,Related Records,"One record per related record, group of records or datasets",2,RDOMAIN,Related Domain Abbreviation,Char,text,2,2,Yes,IDENTIFIER,,Derived,Domain abbreviations for domains which are related to at least one other domain. Derived from parent record,,
RELREC,Related Records,"One record per related record, group of records or datasets",3,USUBJID,Unique Subject Identifier,Char,text,11,3,No,IDENTIFIER,,Derived,"Concatenation of STUDYID, DM.SITEID and DM.SUBJID",,
RELREC,Related Records,"One record per related record, group of records or datasets",4,IDVAR,Identifying Variable,Char,text,8,4,Yes,IDENTIFIER,,Derived,Derived from parent record,,
RELREC,Related Records,"One record per related record, group of records or datasets",5,IDVARVAL,Identifying Variable Value,Char,text,200,5,No,IDENTIFIER,,Derived,Derived from parent record,,
RELREC,Related Records,"One record per related record, group of records or datasets",6,RELTYPE,Relationship Type,Char,text,30,7,No,RESULT QUALIFIER,,Assigned,,,
RELREC,Related Records,"One record per related record, group of records or datasets",7,RELID,Relationship Identifier,Char,text,200,6,Yes,TOPIC,,Derived,Records with the same RELID value can be considered as related records,,
SUPPAE,Supplemental Qualifiers for AE,"One record per IDVAR, IDVARVAL, and QNAM value per subject",1,STUDYID,Study Identifier,Char,text,12,1,Yes,IDENTIFIER,,CRF Page 7,,,
SUPPAE,Supplemental Qualifiers for AE,"One record per IDVAR, IDVARVAL, and QNAM value per subject",2,RDOMAIN,Related Domain Abbreviation,Char,text,2,2,Yes,IDENTIFIER,,Assigned,"RDOMAIN=""AE""",,
SUPPAE,Supplemental Qualifiers for AE,"One record per IDVAR, IDVARVAL, and QNAM value per subject",3,USUBJID,Unique Subject Identifier,Char,text,11,3,Yes,IDENTIFIER,,Derived,"Concatenation of STUDYID, DM.SITEID and DM.SUBJID",,
SUPPAE,Supplemental Qualifiers for AE,"One record per IDVAR, IDVARVAL, and QNAM value per subject",4,IDVAR,Identifying Variable,Char,text,8,4,No,IDENTIFIER,,Assigned,"IDVAR=""AESEQ""",,
SUPPAE,Supplemental Qualifiers for AE,"One record per IDVAR, IDVARVAL, and QNAM value per subject",5,IDVARVAL,Identifying Variable Value,Char,text,200,5,No,IDENTIFIER,,Derived,Value of AESEQ of corresponding parent record,,
SUPPAE,Supplemental Qualifiers for AE,"One record per IDVAR, IDVARVAL, and QNAM value per subject",6,QNAM,Qualifier Variable Name,Char,text,8,6,Yes,TOPIC,,Assigned,,,
SUPPAE,Supplemental Qualifiers for AE,"One record per IDVAR, IDVARVAL, and QNAM value per subject",7,QLABEL,Qualifier Variable Label,Char,text,40,,Yes,SYNONYM QUALIFIER,,Assigned,,,
SUPPAE,Supplemental Qualifiers for AE,"One record per IDVAR, IDVARVAL, and QNAM value per subject",8,QVAL,Data Value,Char,text,200,,Yes,RESULT,,Derived,see value level metadata,,
SUPPAE,Supplemental Qualifiers for AE,"One record per IDVAR, IDVARVAL, and QNAM value per subject",9,QORIG,Origin,Char,text,200,,Yes,RESULT QUALIFIER,,Assigned,,,
SUPPAE,Supplemental Qualifiers for AE,"One record per IDVAR, IDVARVAL, and QNAM value per subject",10,QEVAL,Evaluator,Char,text,200,,No,RESULT QUALIFIER,QEVAL,Assigned,,,
SUPPDM,Supplemental Qualifiers for DM,"One record per IDVAR, IDVARVAL, and QNAM value per subject",1,STUDYID,Study Identifier,Char,text,12,1,Yes,IDENTIFIER,,CRF Page 7,,,
SUPPDM,Supplemental Qualifiers for DM,"One record per IDVAR, IDVARVAL, and QNAM value per subject",2,RDOMAIN,Related Domain Abbreviation,Char,text,2,2,Yes,IDENTIFIER,,Assigned,"RDOMAIN=""AE""",,
SUPPDM,Supplemental Qualifiers for DM,"One record per IDVAR, IDVARVAL, and QNAM value per subject",3,USUBJID,Unique Subject Identifier,Char,text,11,3,Yes,IDENTIFIER,,Derived,"Concatenation of STUDYID, DM.SITEID and DM.SUBJID",,
SUPPDM,Supplemental Qualifiers for DM,"One record per IDVAR, IDVARVAL, and QNAM value per subject",4,IDVAR,Identifying Variable,Char,text,8,4,No,IDENTIFIER,,Assigned,"IDVAR="" """,,
SUPPDM,Supplemental Qualifiers for DM,"One record per IDVAR, IDVARVAL, and QNAM value per subject",5,IDVARVAL,Identifying Variable Value,Char,text,200,5,No,IDENTIFIER,,Assigned,"IDVARVAL= "" """,,
SUPPDM,Supplemental Qualifiers for DM,"One record per IDVAR, IDVARVAL, and QNAM value per subject",6,QNAM,Qualifier Variable Name,Char,text,8,6,Yes,TOPIC,,Assigned,,,
SUPPDM,Supplemental Qualifiers for DM,"One record per IDVAR, IDVARVAL, and QNAM value per subject",7,QLABEL,Qualifier Variable Label,Char,text,40,,Yes,SYNONYM QUALIFIER,,Assigned,,,
SUPPDM,Supplemental Qualifiers for DM,"One record per IDVAR, IDVARVAL, and QNAM value per subject",8,QVAL,Data Value,Char,text,200,,Yes,RESULT,,Derived,see value level metadata,,
SUPPDM,Supplemental Qualifiers for DM,"One record per IDVAR, IDVARVAL, and QNAM value per subject",9,QORIG,Origin,Char,text,200,,Yes,RESULT QUALIFIER,,Assigned,,,
SUPPDM,Supplemental Qualifiers for DM,"One record per IDVAR, IDVARVAL, and QNAM value per subject",10,QEVAL,Evaluator,Char,text,200,,No,RESULT QUALIFIER,QEVAL,Assigned,,,
SUPPDS,Supplemental Qualifiers for DS,"One record per IDVAR, IDVARVAL, and QNAM value per subject",1,STUDYID,Study Identifier,Char,text,12,1,Yes,IDENTIFIER,,CRF Page 7,,,
SUPPDS,Supplemental Qualifiers for DS,"One record per IDVAR, IDVARVAL, and QNAM value per subject",2,RDOMAIN,Related Domain Abbreviation,Char,text,2,2,Yes,IDENTIFIER,,Assigned,"RDOMAIN=""DS""",,
SUPPDS,Supplemental Qualifiers for DS,"One record per IDVAR, IDVARVAL, and QNAM value per subject",3,USUBJID,Unique Subject Identifier,Char,text,11,3,Yes,IDENTIFIER,,Derived,"Concatenation of STUDYID, DM.SITEID and DM.SUBJID",,
SUPPDS,Supplemental Qualifiers for DS,"One record per IDVAR, IDVARVAL, and QNAM value per subject",4,IDVAR,Identifying Variable,Char,text,8,4,No,IDENTIFIER,,Assigned,"IDVAR=""DSSEQ""",,
SUPPDS,Supplemental Qualifiers for DS,"One record per IDVAR, IDVARVAL, and QNAM value per subject",5,IDVARVAL,Identifying Variable Value,Char,text,200,5,No,IDENTIFIER,,Derived,Value of DSSEQ of corresponding parent record,,
SUPPDS,Supplemental Qualifiers for DS,"One record per IDVAR, IDVARVAL, and QNAM value per subject",6,QNAM,Qualifier Variable Name,Char,text,8,6,Yes,TOPIC,,Assigned,,,
SUPPDS,Supplemental Qualifiers for DS,"One record per IDVAR, IDVARVAL, and QNAM value per subject",7,QLABEL,Qualifier Variable Label,Char,text,40,,Yes,SYNONYM QUALIFIER,,"CRF Pages 106, 139",,,
SUPPDS,Supplemental Qualifiers for DS,"One record per IDVAR, IDVARVAL, and QNAM value per subject",8,QVAL,Data Value,Char,text,200,,Yes,RESULT,,"CRF Pages 106, 139",see value level metadata,,
SUPPDS,Supplemental Qualifiers for DS,"One record per IDVAR, IDVARVAL, and QNAM value per subject",9,QORIG,Origin,Char,text,200,,Yes,RESULT QUALIFIER,,Assigned,,,
SUPPDS,Supplemental Qualifiers for DS,"One record per IDVAR, IDVARVAL, and QNAM value per subject",10,QEVAL,Evaluator,Char,text,200,,No,RESULT QUALIFIER,QEVAL,Assigned,,,
SUPPLB,Supplemental Qualifiers for LB,"One record per IDVAR, IDVARVAL, and QNAM value per subject",1,STUDYID,Study Identifier,Char,text,12,1,Yes,IDENTIFIER,,CRF Page 7,,,
SUPPLB,Supplemental Qualifiers for LB,"One record per IDVAR, IDVARVAL, and QNAM value per subject",2,RDOMAIN,Related Domain Abbreviation,Char,text,2,2,Yes,IDENTIFIER,,Assigned,"RDOMAIN=""LB""",,
SUPPLB,Supplemental Qualifiers for LB,"One record per IDVAR, IDVARVAL, and QNAM value per subject",3,USUBJID,Unique Subject Identifier,Char,text,11,3,Yes,IDENTIFIER,,Derived,"Concatenation of STUDYID, DM.SITEID and DM.SUBJID",,
SUPPLB,Supplemental Qualifiers for LB,"One record per IDVAR, IDVARVAL, and QNAM value per subject",4,IDVAR,Identifying Variable,Char,text,8,4,No,IDENTIFIER,,Assigned,"IDVAR=""LBSEQ""",,
SUPPLB,Supplemental Qualifiers for LB,"One record per IDVAR, IDVARVAL, and QNAM value per subject",5,IDVARVAL,Identifying Variable Value,Char,text,200,5,No,IDENTIFIER,,Derived,Value of LBSEQ of corresponding parent record,,
SUPPLB,Supplemental Qualifiers for LB,"One record per IDVAR, IDVARVAL, and QNAM value per subject",6,QNAM,Qualifier Variable Name,Char,text,8,6,Yes,TOPIC,,Assigned,,,
SUPPLB,Supplemental Qualifiers for LB,"One record per IDVAR, IDVARVAL, and QNAM value per subject",7,QLABEL,Qualifier Variable Label,Char,text,40,,Yes,SYNONYM QUALIFIER,,Assigned,,,
SUPPLB,Supplemental Qualifiers for LB,"One record per IDVAR, IDVARVAL, and QNAM value per subject",8,QVAL,Data Value,Char,text,200,,Yes,RESULT,,Derived,see value level metadata,,
SUPPLB,Supplemental Qualifiers for LB,"One record per IDVAR, IDVARVAL, and QNAM value per subject",9,QORIG,Origin,Char,text,200,,Yes,RESULT QUALIFIER,,Assigned,,,
SUPPLB,Supplemental Qualifiers for LB,"One record per IDVAR, IDVARVAL, and QNAM value per subject",10,QEVAL,Evaluator,Char,text,200,,No,RESULT QUALIFIER,QEVAL,Assigned,,,
