dataset,dataset_label,structure,order,variable,label,type,datatype,length,key,mandatory,role,codelist,origin,comment,core,change
TA,Trial Arms,One record per planned Element per Arm,1,STUDYID,Study Identifier,Char,text,12,1,Yes,Identifier,,CRF Page 7,,Req,unchanged
TA,Trial Arms,One record per planned Element per Arm,2,DOMAIN,Domain Abbreviation,Char,text,2,,Yes,Identifier,,Assigned,,Req,unchanged
TA,Trial Arms,One record per planned Element per Arm,3,ARMCD,Planned Arm Code,Char,text,8,2,Yes,Topic,ARMCD,Assigned,,Req,unchanged
TA,Trial Arms,One record per planned Element per Arm,4,ARM,Description of Planned Arm,Char,text,20,,Yes,Synonym Qualifier,ARM,Protocol,,Req,unchanged
TA,Trial Arms,One record per planned Element per Arm,5,TAETORD,Planned Order of Element within Arm,Num,integer,8,3,Yes,Timing,,Assigned,,Req,label 'Order of Element within Arm' -> 'Planned Order of Element within Arm'
TA,Trial Arms,One record per planned Element per Arm,6,ETCD,Element Code,Char,text,200,,Yes,Record Qualifier,ETCD,Assigned,,Req,unchanged
TA,Trial Arms,One record per planned Element per Arm,7,ELEMENT,Description of Element,Char,text,200,,No,Synonym Qualifier,ELEMENT,Protocol,,Perm,unchanged
TA,Trial Arms,One record per planned Element per Arm,8,TABRANCH,Branch,Char,text,200,,No,Rule,,Protocol,,Exp,unchanged
TA,Trial Arms,One record per planned Element per Arm,9,TATRANS,Transition Rule,Char,text,200,,No,Rule,,Protocol,,Exp,unchanged
TA,Trial Arms,One record per planned Element per Arm,10,EPOCH,Epoch,Char,text,200,,Yes,Timing,EPOCH,Protocol,,Req,unchanged
TE,Trial Elements,One record per planned Element,1,STUDYID,Study Identifier,Char,text,12,1,Yes,Identifier,,CRF Page 7,,Req,unchanged
TE,Trial Elements,One record per planned Element,2,DOMAIN,Domain Abbreviation,Char,text,2,,Yes,Identifier,,Assigned,,Req,unchanged
TE,Trial Elements,One record per planned Element,3,ETCD,Element Code,Char,text,200,2,Yes,Topic,ETCD,Assigned,,Req,unchanged
TE,Trial Elements,One record per planned Element,4,ELEMENT,Description of Element,Char,text,200,,Yes,Synonym Qualifier,ELEMENT,Protocol,,Req,unchanged
TE,Trial Elements,One record per planned Element,5,TESTRL,Rule for Start of Element,Char,text,200,,Yes,Rule,,Protocol,,Req,unchanged
TE,Trial Elements,One record per planned Element,6,TEENRL,Rule for End of Element,Char,text,200,,No,Rule,,Protocol,,Perm,unchanged
TE,Trial Elements,One record per planned Element,7,TEDUR,Planned Duration of Element,Char,text,200,,No,Timing,,Protocol,,Perm,unchanged
TV,Trial Visits,One record per planned Visit per Arm,1,STUDYID,Study Identifier,Char,text,12,1,Yes,Identifier,,CRF Page 7,,Req,unchanged
TV,Trial Visits,One record per planned Visit per Arm,2,DOMAIN,Domain Abbreviation,Char,text,2,,Yes,Identifier,,Assigned,,Req,unchanged
TV,Trial Visits,One record per planned Visit per Arm,3,VISITNUM,Visit Number,Num,float,8,2,Yes,Topic,VISITNUM,Protocol,,Req,unchanged
TV,Trial Visits,One record per planned Visit per Arm,4,VISIT,Visit Name,Char,text,90,,Yes,Synonym Qualifier,VISIT,Protocol,,Req,core Perm -> Req
TV,Trial Visits,One record per planned Visit per Arm,5,VISITDY,Planned Study Day of Visit,Num,integer,8,,No,Timing,,Protocol,,Perm,unchanged
TV,Trial Visits,One record per planned Visit per Arm,6,ARMCD,Planned Arm Code,Char,text,8,,No,Record Qualifier,ARMCD,Protocol,,Exp,unchanged
TV,Trial Visits,One record per planned Visit per Arm,7,ARM,Description of Planned Arm,Char,text,20,,No,Synonym Qualifier,ARM,Protocol,,Perm,unchanged
TV,Trial Visits,One record per planned Visit per Arm,8,TVSTRL,Visit Start Rule,Char,text,200,,Yes,Rule,,Protocol,,Req,unchanged
TV,Trial Visits,One record per planned Visit per Arm,9,TVENRL,Visit End Rule,Char,text,200,,No,Rule,,Protocol,,Perm,unchanged
TI,Trial Inclusion/Exclusion Criteria,One record per I/E criterion,1,STUDYID,Study Identifier,Char,text,12,1,Yes,Identifier,,CRF Page 7,,Req,unchanged
TI,Trial Inclusion/Exclusion Criteria,One record per I/E criterion,2,DOMAIN,Domain Abbreviation,Char,text,2,,Yes,Identifier,,Assigned,,Req,unchanged
TI,Trial Inclusion/Exclusion Criteria,One record per I/E criterion,3,IETESTCD,Incl/Excl Criterion Short Name,Char,text,16,2,Yes,Topic,IETESTCD,Assigned,,Req,unchanged
TI,Trial Inclusion/Exclusion Criteria,One record per I/E criterion,4,IETEST,Inclusion/Exclusion Criterion,Char,text,166,,Yes,Synonym Qualifier,IETEST,"CRF Pages 1, 2, 3, 4, 5, 6",,Req,unchanged
TI,Trial Inclusion/Exclusion Criteria,One record per I/E criterion,5,IECAT,Inclusion/Exclusion Category,Char,text,9,,Yes,Grouping Qualifier,IECAT,Assigned,,Req,unchanged
TI,Trial Inclusion/Exclusion Criteria,One record per I/E criterion,6,TIRL,Inclusion/Exclusion Criterion Rule,Char,text,40,,No,Rule,,Assigned,"TIRL= "" """,Perm,unchanged
TS,Trial Summary,One record per trial summary parameter value,1,STUDYID,Study Identifier,Char,text,12,1,Yes,Identifier,,CRF Page 7,,Req,unchanged
TS,Trial Summary,One record per trial summary parameter value,2,DOMAIN,Domain Abbreviation,Char,text,2,,Yes,Identifier,,Assigned,,Req,unchanged
TS,Trial Summary,One record per trial summary parameter value,3,TSSEQ,Sequence Number,Num,integer,8,3,Yes,Identifier,,Derived,Sequential number identifying records within each TSPARMCD,Req,unchanged
TS,Trial Summary,One record per trial summary parameter value,4,TSPARMCD,Trial Summary Parameter Short Name,Char,text,200,2,Yes,Topic,TSPARMCD,Assigned,,Req,unchanged
TS,Trial Summary,One record per trial summary parameter value,5,TSPARM,Trial Summary Parameter,Char,text,200,,Yes,Synonym Qualifier,TSPARM,Protocol,,Req,unchanged
TS,Trial Summary,One record per trial summary parameter value,6,TSVAL,Parameter Value,Char,text,200,,No,Result Qualifier,,Protocol,,Exp,core Req -> Exp
TS,Trial Summary,One record per trial summary parameter value,7,TSVALNF,Parameter Value Null Flavor,Char,text,8,,No,Result Qualifier,,,,Perm,added (Perm in SDTMIG 3.4; needed for a conformance fix)
TS,Trial Summary,One record per trial summary parameter value,8,TSVALCD,Parameter Value Code,Char,text,20,,No,Result Qualifier,,,,Exp,added (Exp in SDTMIG 3.4)
TS,Trial Summary,One record per trial summary parameter value,9,TSVCDREF,Name of the Reference Terminology,Char,text,20,,No,Result Qualifier,DICTNAM,,,Exp,added (Exp in SDTMIG 3.4)
TS,Trial Summary,One record per trial summary parameter value,10,TSVCDVER,Version of the Reference Terminology,Char,text,20,,No,Result Qualifier,,,,Exp,added (Exp in SDTMIG 3.4)
DM,Demographics,One record per subject,1,STUDYID,Study Identifier,Char,text,12,1,Yes,Identifier,,CRF Page 7,,Req,unchanged
DM,Demographics,One record per subject,2,DOMAIN,Domain Abbreviation,Char,text,2,,Yes,Identifier,,Assigned,,Req,unchanged
DM,Demographics,One record per subject,3,USUBJID,Unique Subject Identifier,Char,text,11,2,Yes,Identifier,,Derived,"Concatenation of STUDYID, DM.SITEID and DM.SUBJID",Req,unchanged
DM,Demographics,One record per subject,4,SUBJID,Subject Identifier for the Study,Char,text,4,,Yes,Topic,,CRF Page 7,,Req,unchanged
DM,Demographics,One record per subject,5,RFSTDTC,Subject Reference Start Date/Time,Char,date,10,,No,Record Qualifier,,Derived,Date/time of first study drug treatment derived from EX,Exp,unchanged
DM,Demographics,One record per subject,6,RFENDTC,Subject Reference End Date/Time,Char,date,10,,No,Record Qualifier,,Derived,Date/time of last study drug treatment derived from EX,Exp,unchanged
DM,Demographics,One record per subject,7,RFXSTDTC,Date/Time of First Study Treatment,Char,datetime,20,,No,Record Qualifier,,Derived,RFXSTDTC=RFSTDTC,Exp,unchanged
DM,Demographics,One record per subject,8,RFXENDTC,Date/Time of Last Study Treatment,Char,datetime,20,,No,Record Qualifier,,Derived,RFXENDTC=RFENDTC,Exp,unchanged
DM,Demographics,One record per subject,9,RFICDTC,Date/Time of Informed Consent,Char,datetime,20,,No,Record Qualifier,,Derived,Date of informed consent was not entered in database (see annotated CRF),Exp,unchanged
DM,Demographics,One record per subject,10,RFPENDTC,Date/Time of End of Participation,Char,datetime,20,,No,Record Qualifier,,Derived,DSSTDTC of last disposition event,Exp,unchanged
DM,Demographics,One record per subject,11,DTHDTC,Date/Time of Death,Char,datetime,20,,No,Record Qualifier,,Derived,"If DS record exists with DSDECOD=""DEATH"" then DTHDTC=AEENDTC.",Exp,unchanged
DM,Demographics,One record per subject,12,DTHFL,Subject Death Flag,Char,text,1,,No,Record Qualifier,NY,Derived,"If DS record exists with DSDECOD=""DEATH"" then DEATHFL=Y.",Exp,unchanged
DM,Demographics,One record per subject,13,SITEID,Study Site Identifier,Char,text,3,,Yes,Record Qualifier,,Assigned,,Req,unchanged
DM,Demographics,One record per subject,14,AGE,Age,Num,integer,8,,No,Record Qualifier,,Derived,Subject's Age at start of study drug (RFSTDTC).,Exp,unchanged
DM,Demographics,One record per subject,15,AGEU,Age Units,Char,text,6,,No,Variable Qualifier,AGEU,Assigned,"AGEU=""YEARS""",Exp,unchanged
DM,Demographics,One record per subject,16,SEX,Sex,Char,text,1,,Yes,Record Qualifier,SEX,CRF Page 7,,Req,unchanged
DM,Demographics,One record per subject,17,RACE,Race,Char,text,78,,No,Record Qualifier,RACE,CRF Page 7,,Exp,unchanged; codelist RACE not in sdtmct-2026-03-27
DM,Demographics,One record per subject,18,ETHNIC,Ethnicity,Char,text,25,,No,Record Qualifier,ETHNIC,Derived,"Derived from Origin entered on CRF: ETHINC=""HISPANIC OR LATINO"" if Origin=""Hispanic"". Otherwise ETHNIC=""NOT HISPANIC OR LATINO""",Perm,unchanged; codelist ETHNIC not in sdtmct-2026-03-27
DM,Demographics,One record per subject,19,ARMCD,Planned Arm Code,Char,text,8,,No,Record Qualifier,ARMCD,Assigned,According to randomization list,Exp,core Req -> Exp
DM,Demographics,One record per subject,20,ARM,Description of Planned Arm,Char,text,20,,No,Synonym Qualifier,ARM,Assigned,According to randomization list,Exp,core Req -> Exp
DM,Demographics,One record per subject,21,ACTARMCD,Actual Arm Code,Char,text,8,,No,Record Qualifier,ARMCD,Derived,Derived from EX,Exp,unchanged
DM,Demographics,One record per subject,22,ACTARM,Description of Actual Arm,Char,text,20,,No,Synonym Qualifier,ARM,Derived,Derived from EX,Exp,unchanged
DM,Demographics,One record per subject,23,ARMNRS,Reason Arm and/or Actual Arm is Null,Char,text,40,,No,Record Qualifier,ARMNULRS,,,Exp,added (Exp in SDTMIG 3.4)
DM,Demographics,One record per subject,24,ACTARMUD,Description of Unplanned Actual Arm,Char,text,200,,No,Record Qualifier,,,,Exp,added (Exp in SDTMIG 3.4)
DM,Demographics,One record per subject,25,COUNTRY,Country,Char,text,3,,Yes,Record Qualifier,COUNTRY,Derived,Derived from site information,Req,unchanged
DM,Demographics,One record per subject,26,DMDTC,Date/Time of Collection,Char,date,10,,No,Timing,,CRF Page 7,,Perm,unchanged
DM,Demographics,One record per subject,27,DMDY,Study Day of Collection,Num,integer,8,,No,Timing,,Derived,,Perm,unchanged
SUPPDM,Supplemental Qualifiers for DM,One record per supplemental qualifier per related parent domain record(s),1,STUDYID,Study Identifier,Char,text,12,1,Yes,Identifier,,CRF Page 7,,Req,unchanged
SUPPDM,Supplemental Qualifiers for DM,One record per supplemental qualifier per related parent domain record(s),2,RDOMAIN,Related Domain Abbreviation,Char,text,2,2,Yes,Identifier,DOMAIN,Assigned,"RDOMAIN=""AE""",Req,unchanged
SUPPDM,Supplemental Qualifiers for DM,One record per supplemental qualifier per related parent domain record(s),3,USUBJID,Unique Subject Identifier,Char,text,11,3,Yes,Identifier,,Derived,"Concatenation of STUDYID, DM.SITEID and DM.SUBJID",Req,unchanged
SUPPDM,Supplemental Qualifiers for DM,One record per supplemental qualifier per related parent domain record(s),4,IDVAR,Identifying Variable,Char,text,8,4,No,Identifier,,Assigned,"IDVAR="" """,Exp,unchanged
SUPPDM,Supplemental Qualifiers for DM,One record per supplemental qualifier per related parent domain record(s),5,IDVARVAL,Identifying Variable Value,Char,text,200,5,No,Identifier,,Assigned,"IDVARVAL= "" """,Exp,unchanged
SUPPDM,Supplemental Qualifiers for DM,One record per supplemental qualifier per related parent domain record(s),6,QNAM,Qualifier Variable Name,Char,text,8,6,Yes,Topic,,Assigned,,Req,unchanged
SUPPDM,Supplemental Qualifiers for DM,One record per supplemental qualifier per related parent domain record(s),7,QLABEL,Qualifier Variable Label,Char,text,40,,Yes,Synonym Qualifier,,Assigned,,Req,unchanged
SUPPDM,Supplemental Qualifiers for DM,One record per supplemental qualifier per related parent domain record(s),8,QVAL,Data Value,Char,text,200,,Yes,Result Qualifier,,Derived,see value level metadata,Req,unchanged
SUPPDM,Supplemental Qualifiers for DM,One record per supplemental qualifier per related parent domain record(s),9,QORIG,Origin,Char,text,200,,Yes,Record Qualifier,,Assigned,,Req,unchanged
SUPPDM,Supplemental Qualifiers for DM,One record per supplemental qualifier per related parent domain record(s),10,QEVAL,Evaluator,Char,text,200,,No,Record Qualifier,EVAL,Assigned,,Exp,unchanged
SE,Subject Elements,One record per actual Element per subject,1,STUDYID,Study Identifier,Char,text,12,1,Yes,Identifier,,CRF Page 7,,Req,unchanged
SE,Subject Elements,One record per actual Element per subject,2,DOMAIN,Domain Abbreviation,Char,text,2,,Yes,Identifier,,Assigned,,Req,unchanged
SE,Subject Elements,One record per actual Element per subject,3,USUBJID,Unique Subject Identifier,Char,text,11,2,Yes,Identifier,,Derived,"Concatenation of STUDYID, DM.SITEID and DM.SUBJID",Req,unchanged
SE,Subject Elements,One record per actual Element per subject,4,SESEQ,Sequence Number,Num,integer,8,,Yes,Identifier,,Derived,Sequential number identifying records within each USUBJID,Req,unchanged
SE,Subject Elements,One record per actual Element per subject,5,ETCD,Element Code,Char,text,200,3,Yes,Topic,ETCD,Assigned,,Req,unchanged
SE,Subject Elements,One record per actual Element per subject,6,ELEMENT,Description of Element,Char,text,200,,No,Synonym Qualifier,ELEMENT,Protocol,,Perm,unchanged
SE,Subject Elements,One record per actual Element per subject,7,SESTDTC,Start Date/Time of Element,Char,date,10,,Yes,Timing,,Derived,Earliest date/time when data pertaining to that element were collected,Req,unchanged
SE,Subject Elements,One record per actual Element per subject,8,SEENDTC,End Date/Time of Element,Char,date,10,,No,Timing,,Derived,Last date/time when data pertaining to that element were collected,Exp,unchanged
SE,Subject Elements,One record per actual Element per subject,9,SESTDY,Study Day of Start of Element,Num,integer,8,,No,Timing,,,,Perm,added (Perm in SDTMIG 3.4)
SE,Subject Elements,One record per actual Element per subject,10,SEENDY,Study Day of End of Element,Num,integer,8,,No,Timing,,,,Perm,added (Perm in SDTMIG 3.4)
SE,Subject Elements,One record per actual Element per subject,11,SEUPDES,Description of Unplanned Element,Char,text,200,,No,Synonym Qualifier,,Assigned,,Perm,unchanged
SV,Subject Visits,One record per actual or planned visit per subject,1,STUDYID,Study Identifier,Char,text,12,1,Yes,Identifier,,CRF Page 7,,Req,unchanged
SV,Subject Visits,One record per actual or planned visit per subject,2,DOMAIN,Domain Abbreviation,Char,text,2,,Yes,Identifier,,Assigned,,Req,unchanged
SV,Subject Visits,One record per actual or planned visit per subject,3,USUBJID,Unique Subject Identifier,Char,text,11,2,Yes,Identifier,,Derived,"Concatenation of STUDYID, DM.SITEID and DM.SUBJID",Req,unchanged
SV,Subject Visits,One record per actual or planned visit per subject,4,VISITNUM,Visit Number,Num,float,8,3,Yes,Topic,VISITNUM,"CRF Pages 7, 22, 25, 32, 36, 42, 49, 52, 58, 67, 73, 82, 88, 90, 99, 108, 116, 121, 122, 123, 123, 125, 126, 128",,Req,unchanged
SV,Subject Visits,One record per actual or planned visit per subject,5,VISIT,Visit Name,Char,text,19,,No,Synonym Qualifier,VISIT,"CRF Pages 7, 22, 25, 32, 36, 42, 49, 52, 58, 67, 73, 82, 88, 90, 99, 108, 116, 121, 122, 123, 123, 125, 126, 128",,Perm,unchanged
SV,Subject Visits,One record per actual or planned visit per subject,6,SVPRESP,Pre-specified,Char,text,1,,No,Variable Qualifier,NY,,,Exp,added (Exp in SDTMIG 3.4)
SV,Subject Visits,One record per actual or planned visit per subject,7,SVOCCUR,Occurrence,Char,text,1,,No,Record Qualifier,NY,,,Exp,added (Exp in SDTMIG 3.4)
SV,Subject Visits,One record per actual or planned visit per subject,8,VISITDY,Planned Study Day of Visit,Num,integer,8,,No,Timing,,Derived,TV.VISITDY,Perm,unchanged
SV,Subject Visits,One record per actual or planned visit per subject,9,SVSTDTC,Start Date/Time of Observation,Char,date,10,,No,Timing,,Derived,Earliest date when data were collected for the corresponding visit.,Exp,label 'Start Date/Time of Visit' -> 'Start Date/Time of Observation'
SV,Subject Visits,One record per actual or planned visit per subject,10,SVENDTC,End Date/Time of Observation,Char,date,10,,No,Timing,,Derived,Lastt date when data were collected for the corresponding visit.,Exp,label 'End Date/Time of Visit' -> 'End Date/Time of Observation'
SV,Subject Visits,One record per actual or planned visit per subject,11,SVSTDY,Study Day of Start of Observation,Num,integer,8,,No,Timing,,,,Perm,added (Perm in SDTMIG 3.4)
SV,Subject Visits,One record per actual or planned visit per subject,12,SVENDY,Study Day of End of Observation,Num,integer,8,,No,Timing,,,,Perm,added (Perm in SDTMIG 3.4)
EX,Exposure,"One record per protocol-specified study treatment, constant-dosing interval, per subject",1,STUDYID,Study Identifier,Char,text,12,1,Yes,Identifier,,CRF Page 7,,Req,unchanged
EX,Exposure,"One record per protocol-specified study treatment, constant-dosing interval, per subject",2,DOMAIN,Domain Abbreviation,Char,text,2,,Yes,Identifier,,Assigned,,Req,unchanged
EX,Exposure,"One record per protocol-specified study treatment, constant-dosing interval, per subject",3,USUBJID,Unique Subject Identifier,Char,text,11,2,Yes,Identifier,,Derived,"Concatenation of STUDYID, DM.SITEID and DM.SUBJID",Req,unchanged
EX,Exposure,"One record per protocol-specified study treatment, constant-dosing interval, per subject",4,EXSEQ,Sequence Number,Num,integer,8,,Yes,Identifier,,Derived,Sequential number identifying records within each USUBJID,Req,unchanged
EX,Exposure,"One record per protocol-specified study treatment, constant-dosing interval, per subject",5,EXTRT,Name of Treatment,Char,text,10,3,Yes,Topic,EXTRT,eDT,,Req,label 'Name of Actual Treatment' -> 'Name of Treatment'
EX,Exposure,"One record per protocol-specified study treatment, constant-dosing interval, per subject",6,EXDOSE,Dose,Num,integer,8,,No,Record Qualifier,,eDT,,Exp,label 'Dose per Administration' -> 'Dose'
EX,Exposure,"One record per protocol-specified study treatment, constant-dosing interval, per subject",7,EXDOSU,Dose Units,Char,text,2,,No,Variable Qualifier,UNIT,eDT,,Exp,unchanged
EX,Exposure,"One record per protocol-specified study treatment, constant-dosing interval, per subject",8,EXDOSFRM,Dose Form,Char,text,5,,No,Variable Qualifier,FRM,eDT,,Exp,unchanged
EX,Exposure,"One record per protocol-specified study treatment, constant-dosing interval, per subject",9,EXDOSFRQ,Dosing Frequency per Interval,Char,text,2,,No,Record Qualifier,FREQ,eDT,,Perm,label 'Dosing Frequency Per Interval' -> 'Dosing Frequency per Interval'
EX,Exposure,"One record per protocol-specified study treatment, constant-dosing interval, per subject",10,EXROUTE,Route of Administration,Char,text,11,,No,Variable Qualifier,ROUTE,eDT,,Perm,unchanged
EX,Exposure,"One record per protocol-specified study treatment, constant-dosing interval, per subject",11,VISITNUM,Visit Number,Num,float,8,,No,Timing,VISITNUM,"CRF Pages 25, 36, 42, 49, 52, 58, 67, 73, 82, 90, 99, 108, 116, 128",,Perm,kept from pilot; allowed by SDTM but not in the SDTMIG 3.4 domain table
EX,Exposure,"One record per protocol-specified study treatment, constant-dosing interval, per subject",12,VISIT,Visit Name,Char,text,19,,No,Timing,VISIT,"CRF Pages 25, 36, 42, 49, 52, 58, 67, 73, 82, 90, 99, 108, 116, 128",,Perm,kept from pilot; allowed by SDTM but not in the SDTMIG 3.4 domain table
EX,Exposure,"One record per protocol-specified study treatment, constant-dosing interval, per subject",13,VISITDY,Planned Study Day of Visit,Num,integer,8,,No,Timing,,Derived,TV.VISITDY,Perm,kept from pilot; allowed by SDTM but not in the SDTMIG 3.4 domain table
EX,Exposure,"One record per protocol-specified study treatment, constant-dosing interval, per subject",14,EPOCH,Epoch,Char,text,20,,No,Timing,EPOCH,,,Perm,added (Perm in SDTMIG 3.4; needed for a conformance fix)
EX,Exposure,"One record per protocol-specified study treatment, constant-dosing interval, per subject",15,EXSTDTC,Start Date/Time of Treatment,Char,date,10,4,No,Timing,,"CRF Pages 25, 36, 42, 49, 52, 58, 67, 73, 82, 90, 99, 108, 116, 128",,Exp,unchanged
EX,Exposure,"One record per protocol-specified study treatment, constant-dosing interval, per subject",16,EXENDTC,End Date/Time of Treatment,Char,date,10,,No,Timing,,"CRF Page 105, 138",,Exp,core Perm -> Exp
EX,Exposure,"One record per protocol-specified study treatment, constant-dosing interval, per subject",17,EXSTDY,Study Day of Start of Treatment,Num,integer,8,,No,Timing,,Derived,,Perm,unchanged
EX,Exposure,"One record per protocol-specified study treatment, constant-dosing interval, per subject",18,EXENDY,Study Day of End of Treatment,Num,integer,8,,No,Timing,,Derived,,Perm,unchanged
AE,Adverse Events,One record per adverse event per subject,1,STUDYID,Study Identifier,Char,text,12,1,Yes,Identifier,,CRF Page 7,,Req,unchanged
AE,Adverse Events,One record per adverse event per subject,2,DOMAIN,Domain Abbreviation,Char,text,2,,Yes,Identifier,,Assigned,,Req,unchanged
AE,Adverse Events,One record per adverse event per subject,3,USUBJID,Unique Subject Identifier,Char,text,11,2,Yes,Identifier,,Derived,"Concatenation of STUDYID, DM.SITEID and DM.SUBJID",Req,unchanged
AE,Adverse Events,One record per adverse event per subject,4,AESEQ,Sequence Number,Num,integer,8,5,Yes,Identifier,,Derived,Sequential number identifying records within each USUBJID,Req,unchanged
AE,Adverse Events,One record per adverse event per subject,5,AESPID,Sponsor-Defined Identifier,Char,text,3,,No,Identifier,,"CRF Page 121, 122, 123",,Perm,unchanged
AE,Adverse Events,One record per adverse event per subject,6,AETERM,Reported Term for the Adverse Event,Char,text,200,3,Yes,Topic,,"CRF Page 121, 122, 123",,Req,unchanged
AE,Adverse Events,One record per adverse event per subject,7,AELLT,Lowest Level Term,Char,text,100,,No,Variable Qualifier,AEDICT,Assigned,,Exp,unchanged
AE,Adverse Events,One record per adverse event per subject,8,AELLTCD,Lowest Level Term Code,Num,integer,8,,No,Variable Qualifier,,Assigned,,Exp,unchanged
AE,Adverse Events,One record per adverse event per subject,9,AEDECOD,Dictionary-Derived Term,Char,text,200,,Yes,Synonym Qualifier,AEDICT,Assigned,,Req,unchanged
AE,Adverse Events,One record per adverse event per subject,10,AEPTCD,Preferred Term Code,Num,integer,8,,No,Variable Qualifier,,Assigned,,Exp,unchanged
AE,Adverse Events,One record per adverse event per subject,11,AEHLT,High Level Term,Char,text,100,,No,Variable Qualifier,AEDICT,Assigned,,Exp,unchanged
AE,Adverse Events,One record per adverse event per subject,12,AEHLTCD,High Level Term Code,Num,integer,8,,No,Variable Qualifier,,Assigned,,Exp,unchanged
AE,Adverse Events,One record per adverse event per subject,13,AEHLGT,High Level Group Term,Char,text,100,,No,Variable Qualifier,AEDICT,Assigned,,Exp,unchanged
AE,Adverse Events,One record per adverse event per subject,14,AEHLGTCD,High Level Group Term Code,Num,integer,8,,No,Variable Qualifier,,Assigned,,Exp,unchanged
AE,Adverse Events,One record per adverse event per subject,15,AEBODSYS,Body System or Organ Class,Char,text,67,,No,Record Qualifier,AEDICT,Assigned,,Exp,unchanged
AE,Adverse Events,One record per adverse event per subject,16,AEBDSYCD,Body System or Organ Class Code,Num,integer,8,,No,Variable Qualifier,,Assigned,,Exp,unchanged
AE,Adverse Events,One record per adverse event per subject,17,AESOC,Primary System Organ Class,Char,text,100,,No,Variable Qualifier,AEDICT,Assigned,,Exp,unchanged
AE,Adverse Events,One record per adverse event per subject,18,AESOCCD,Primary System Organ Class Code,Num,integer,8,,No,Variable Qualifier,,Assigned,,Exp,unchanged
AE,Adverse Events,One record per adverse event per subject,19,AESEV,Severity/Intensity,Char,text,8,,No,Record Qualifier,AESEV,"CRF Page 121, 122, 123",,Perm,unchanged
AE,Adverse Events,One record per adverse event per subject,20,AESER,Serious Event,Char,text,1,,No,Record Qualifier,NY,"CRF Page 121, 122, 123",,Exp,unchanged
AE,Adverse Events,One record per adverse event per subject,21,AEACN,Action Taken with Study Treatment,Char,text,30,,No,Record Qualifier,ACN,Derived,AEACN=Null (data on action taken concerning study treatment was not collected),Exp,unchanged
AE,Adverse Events,One record per adverse event per subject,22,AEREL,Causality,Char,text,8,,No,Record Qualifier,AECAUS,"CRF Page 121, 122, 123",,Exp,unchanged
AE,Adverse Events,One record per adverse event per subject,23,AEOUT,Outcome of Adverse Event,Char,text,200,,No,Record Qualifier,OUT,"CRF Page 121, 122, 123",,Perm,unchanged
AE,Adverse Events,One record per adverse event per subject,24,AESCAN,Involves Cancer,Char,text,1,,No,Record Qualifier,NY,"CRF Page 121, 122, 123",,Perm,unchanged
AE,Adverse Events,One record per adverse event per subject,25,AESCONG,Congenital Anomaly or Birth Defect,Char,text,1,,No,Record Qualifier,NY,"CRF Page 121, 122, 123",,Perm,unchanged
AE,Adverse Events,One record per adverse event per subject,26,AESDISAB,Persist or Signif Disability/Incapacity,Char,text,1,,No,Record Qualifier,NY,"CRF Page 121, 122, 123",,Perm,unchanged
AE,Adverse Events,One record per adverse event per subject,27,AESDTH,Results in Death,Char,text,1,,No,Record Qualifier,NY,"CRF Page 121, 122, 123",,Perm,unchanged
AE,Adverse Events,One record per adverse event per subject,28,AESHOSP,Requires or Prolongs Hospitalization,Char,text,1,,No,Record Qualifier,NY,"CRF Page 121, 122, 123",,Perm,unchanged
AE,Adverse Events,One record per adverse event per subject,29,AESLIFE,Is Life Threatening,Char,text,1,,No,Record Qualifier,NY,"CRF Page 121, 122, 123",,Perm,unchanged
AE,Adverse Events,One record per adverse event per subject,30,AESOD,Occurred with Overdose,Char,text,1,,No,Record Qualifier,NY,"CRF Page 121, 122, 123",,Perm,unchanged
AE,Adverse Events,One record per adverse event per subject,31,AEDTC,Date/Time of Collection,Char,date,10,,No,Timing,,Derived,Date of final visit (SV),Perm,kept from pilot; allowed by SDTM but not in the SDTMIG 3.4 domain table
AE,Adverse Events,One record per adverse event per subject,32,AEDY,Study Day of Visit/Collection/Exam,Num,integer,8,,No,Timing,,,,Perm,added (--DY for the --DTC kept from the pilot)
AE,Adverse Events,One record per adverse event per subject,33,EPOCH,Epoch,Char,text,20,,No,Timing,EPOCH,,,Perm,added (Perm in SDTMIG 3.4; needed for a conformance fix)
AE,Adverse Events,One record per adverse event per subject,34,AESTDTC,Start Date/Time of Adverse Event,Char,date,10,4,No,Timing,,"CRF Page 121, 122, 123",,Exp,unchanged
AE,Adverse Events,One record per adverse event per subject,35,AEENDTC,End Date/Time of Adverse Event,Char,date,10,,No,Timing,,"CRF Page 121, 122, 123",,Exp,unchanged
AE,Adverse Events,One record per adverse event per subject,36,AESTDY,Study Day of Start of Adverse Event,Num,integer,8,,No,Timing,,Derived,,Perm,unchanged
AE,Adverse Events,One record per adverse event per subject,37,AEENDY,Study Day of End of Adverse Event,Num,integer,8,,No,Timing,,Derived,,Perm,unchanged
SUPPAE,Supplemental Qualifiers for AE,One record per supplemental qualifier per related parent domain record(s),1,STUDYID,Study Identifier,Char,text,12,1,Yes,Identifier,,CRF Page 7,,Req,unchanged
SUPPAE,Supplemental Qualifiers for AE,One record per supplemental qualifier per related parent domain record(s),2,RDOMAIN,Related Domain Abbreviation,Char,text,2,2,Yes,Identifier,DOMAIN,Assigned,"RDOMAIN=""AE""",Req,unchanged
SUPPAE,Supplemental Qualifiers for AE,One record per supplemental qualifier per related parent domain record(s),3,USUBJID,Unique Subject Identifier,Char,text,11,3,Yes,Identifier,,Derived,"Concatenation of STUDYID, DM.SITEID and DM.SUBJID",Req,unchanged
SUPPAE,Supplemental Qualifiers for AE,One record per supplemental qualifier per related parent domain record(s),4,IDVAR,Identifying Variable,Char,text,8,4,No,Identifier,,Assigned,"IDVAR=""AESEQ""",Exp,unchanged
SUPPAE,Supplemental Qualifiers for AE,One record per supplemental qualifier per related parent domain record(s),5,IDVARVAL,Identifying Variable Value,Char,text,200,5,No,Identifier,,Derived,Value of AESEQ of corresponding parent record,Exp,unchanged
SUPPAE,Supplemental Qualifiers for AE,One record per supplemental qualifier per related parent domain record(s),6,QNAM,Qualifier Variable Name,Char,text,8,6,Yes,Topic,,Assigned,,Req,unchanged
SUPPAE,Supplemental Qualifiers for AE,One record per supplemental qualifier per related parent domain record(s),7,QLABEL,Qualifier Variable Label,Char,text,40,,Yes,Synonym Qualifier,,Assigned,,Req,unchanged
SUPPAE,Supplemental Qualifiers for AE,One record per supplemental qualifier per related parent domain record(s),8,QVAL,Data Value,Char,text,200,,Yes,Result Qualifier,,Derived,see value level metadata,Req,unchanged
SUPPAE,Supplemental Qualifiers for AE,One record per supplemental qualifier per related parent domain record(s),9,QORIG,Origin,Char,text,200,,Yes,Record Qualifier,,Assigned,,Req,unchanged
SUPPAE,Supplemental Qualifiers for AE,One record per supplemental qualifier per related parent domain record(s),10,QEVAL,Evaluator,Char,text,200,,No,Record Qualifier,EVAL,Assigned,,Exp,unchanged
DS,Disposition,One record per disposition status or protocol milestone per subject,1,STUDYID,Study Identifier,Char,text,12,1,Yes,Identifier,,CRF Page 7,,Req,unchanged
DS,Disposition,One record per disposition status or protocol milestone per subject,2,DOMAIN,Domain Abbreviation,Char,text,2,,Yes,Identifier,,Assigned,,Req,unchanged
DS,Disposition,One record per disposition status or protocol milestone per subject,3,USUBJID,Unique Subject Identifier,Char,text,11,2,Yes,Identifier,,Derived,"Concatenation of STUDYID, DM.SITEID and DM.SUBJID",Req,unchanged
DS,Disposition,One record per disposition status or protocol milestone per subject,4,DSSEQ,Sequence Number,Num,integer,8,,Yes,Identifier,,Derived,Sequential number identifying records within each USUBJID,Req,unchanged
DS,Disposition,One record per disposition status or protocol milestone per subject,5,DSSPID,Sponsor-Defined Identifier,Char,text,2,,No,Identifier,,Assigned,,Perm,unchanged
DS,Disposition,One record per disposition status or protocol milestone per subject,6,DSTERM,Reported Term for the Disposition Event,Char,text,63,,Yes,Topic,,"CRF Page 106, 139",,Req,unchanged
DS,Disposition,One record per disposition status or protocol milestone per subject,7,DSDECOD,Standardized Disposition Term,Char,text,63,3,Yes,Synonym Qualifier,NCOMPLT|PROTMLST|OTHEVENT,"CRF Page 106, 139",,Req,unchanged
DS,Disposition,One record per disposition status or protocol milestone per subject,8,DSCAT,Category for Disposition Event,Char,text,17,,No,Grouping Qualifier,DSCAT,Assigned,,Exp,unchanged
DS,Disposition,One record per disposition status or protocol milestone per subject,9,VISITNUM,Visit Number,Num,float,8,,No,Timing,VISITNUM,"CRF Page 106, 139",,Perm,kept from pilot; allowed by SDTM but not in the SDTMIG 3.4 domain table
DS,Disposition,One record per disposition status or protocol milestone per subject,10,VISIT,Visit Name,Char,text,19,,No,Timing,VISIT,"CRF Page 106, 139",,Perm,kept from pilot; allowed by SDTM but not in the SDTMIG 3.4 domain table
DS,Disposition,One record per disposition status or protocol milestone per subject,11,EPOCH,Epoch,Char,text,20,,No,Timing,EPOCH,,,Perm,added (Perm in SDTMIG 3.4; needed for a conformance fix)
DS,Disposition,One record per disposition status or protocol milestone per subject,12,DSDTC,Date/Time of Collection,Char,datetime,19,,No,Timing,,"CRF Page 106, 139",,Perm,unchanged
DS,Disposition,One record per disposition status or protocol milestone per subject,13,DSSTDTC,Start Date/Time of Disposition Event,Char,date,10,4,No,Timing,,"CRF Page 106, 139",,Exp,unchanged
DS,Disposition,One record per disposition status or protocol milestone per subject,14,DSDY,Study Day of Collection,Num,integer,8,,No,Timing,,,,Perm,added (Perm in SDTMIG 3.4)
DS,Disposition,One record per disposition status or protocol milestone per subject,15,DSSTDY,Study Day of Start of Disposition Event,Num,integer,8,,No,Timing,,Derived,,Exp,core Perm -> Exp
SUPPDS,Supplemental Qualifiers for DS,One record per supplemental qualifier per related parent domain record(s),1,STUDYID,Study Identifier,Char,text,12,1,Yes,Identifier,,CRF Page 7,,Req,unchanged
SUPPDS,Supplemental Qualifiers for DS,One record per supplemental qualifier per related parent domain record(s),2,RDOMAIN,Related Domain Abbreviation,Char,text,2,2,Yes,Identifier,DOMAIN,Assigned,"RDOMAIN=""DS""",Req,unchanged
SUPPDS,Supplemental Qualifiers for DS,One record per supplemental qualifier per related parent domain record(s),3,USUBJID,Unique Subject Identifier,Char,text,11,3,Yes,Identifier,,Derived,"Concatenation of STUDYID, DM.SITEID and DM.SUBJID",Req,unchanged
SUPPDS,Supplemental Qualifiers for DS,One record per supplemental qualifier per related parent domain record(s),4,IDVAR,Identifying Variable,Char,text,8,4,No,Identifier,,Assigned,"IDVAR=""DSSEQ""",Exp,unchanged
SUPPDS,Supplemental Qualifiers for DS,One record per supplemental qualifier per related parent domain record(s),5,IDVARVAL,Identifying Variable Value,Char,text,200,5,No,Identifier,,Derived,Value of DSSEQ of corresponding parent record,Exp,unchanged
SUPPDS,Supplemental Qualifiers for DS,One record per supplemental qualifier per related parent domain record(s),6,QNAM,Qualifier Variable Name,Char,text,8,6,Yes,Topic,,Assigned,,Req,unchanged
SUPPDS,Supplemental Qualifiers for DS,One record per supplemental qualifier per related parent domain record(s),7,QLABEL,Qualifier Variable Label,Char,text,40,,Yes,Synonym Qualifier,,"CRF Pages 106, 139",,Req,unchanged
SUPPDS,Supplemental Qualifiers for DS,One record per supplemental qualifier per related parent domain record(s),8,QVAL,Data Value,Char,text,200,,Yes,Result Qualifier,,"CRF Pages 106, 139",see value level metadata,Req,unchanged
SUPPDS,Supplemental Qualifiers for DS,One record per supplemental qualifier per related parent domain record(s),9,QORIG,Origin,Char,text,200,,Yes,Record Qualifier,,Assigned,,Req,unchanged
SUPPDS,Supplemental Qualifiers for DS,One record per supplemental qualifier per related parent domain record(s),10,QEVAL,Evaluator,Char,text,200,,No,Record Qualifier,EVAL,Assigned,,Exp,unchanged
